"rt","response","trial_type","trial_index","time_elapsed","internal_node_id","part_ID","ID_DATE","screen_id","understand_correct","stimulus","arousal","valence","img_id","tested_trial_idx"
"8679","0","html-button-response","0","8689","0.0-0.0","5b15307351caaf0001228d9b","5b15307351caaf0001228d9b_20240207","","","","","","",""
"79807","[object Object]","survey-html-form","1","89005","0.0-1.0","5b15307351caaf0001228d9b","5b15307351caaf0001228d9b_20240207","prolific_id_page","","","","","",""
"230963","0","html-button-response","2","319980","0.0-2.0","5b15307351caaf0001228d9b","5b15307351caaf0001228d9b_20240207","","","","","","",""
"51166","0","html-button-response","3","371653","0.0-3.0-0.0","5b15307351caaf0001228d9b","5b15307351caaf0001228d9b_20240207","","true","","","","",""
"1240","0","html-button-response","4","373401","0.0-4.0","5b15307351caaf0001228d9b","5b15307351caaf0001228d9b_20240207","","","
<div>
Great! You will now go on to rate the faces.
<br><br>
</div>
","","","",""
"7393","0","html-button-response","5","381304","0.0-5.0","5b15307351caaf0001228d9b","5b15307351caaf0001228d9b_20240207","","","","4","3","330",""
"6349","0","html-button-response","6","388159","0.0-6.0","5b15307351caaf0001228d9b","5b15307351caaf0001228d9b_20240207","","","","4","2","332",""
"6746","0","html-button-response","7","395413","0.0-7.0","5b15307351caaf0001228d9b","5b15307351caaf0001228d9b_20240207","","","","9","1","1036",""
"5533","0","html-button-response","8","401453","0.0-8.0","5b15307351caaf0001228d9b","5b15307351caaf0001228d9b_20240207","","","","5","5","606",""
"3246","0","html-button-response","9","405205","0.0-9.0","5b15307351caaf0001228d9b","5b15307351caaf0001228d9b_20240207","","","","9","1","1531",""
"7408","0","html-button-response","10","413119","0.0-10.0","5b15307351caaf0001228d9b","5b15307351caaf0001228d9b_20240207","","","","4","4","1503",""
"9073","0","html-button-response","11","422697","0.0-11.0","5b15307351caaf0001228d9b","5b15307351caaf0001228d9b_20240207","","","","7","3","469",""
"8022","0","html-button-response","12","431224","0.0-12.0","5b15307351caaf0001228d9b","5b15307351caaf0001228d9b_20240207","","","","4","3","1635",""
"6388","0","html-button-response","13","438118","0.0-13.0","5b15307351caaf0001228d9b","5b15307351caaf0001228d9b_20240207","","","","3","2","845",""
"134816","0","html-button-response","14","573441","0.0-14.0","5b15307351caaf0001228d9b","5b15307351caaf0001228d9b_20240207","","","","7","7","1277",""
"10430","0","html-button-response","15","584377","0.0-15.0","5b15307351caaf0001228d9b","5b15307351caaf0001228d9b_20240207","","","","8","9","2031",""
"3428","0","html-button-response","16","588311","0.0-16.0","5b15307351caaf0001228d9b","5b15307351caaf0001228d9b_20240207","","","","9","9","1044",""
"4255","0","html-button-response","17","593071","0.0-17.0","5b15307351caaf0001228d9b","5b15307351caaf0001228d9b_20240207","","","","5","7","950",""
"8595","0","html-button-response","18","602171","0.0-18.0","5b15307351caaf0001228d9b","5b15307351caaf0001228d9b_20240207","","","","9","6","770",""
"3398","0","html-button-response","19","606075","0.0-19.0","5b15307351caaf0001228d9b","5b15307351caaf0001228d9b_20240207","","","","5","5","1852",""
"6188","0","html-button-response","20","612768","0.0-20.0","5b15307351caaf0001228d9b","5b15307351caaf0001228d9b_20240207","","","","3","5","1984",""
"108118","0","html-button-response","21","721392","0.0-21.0","5b15307351caaf0001228d9b","5b15307351caaf0001228d9b_20240207","","","","5","5","1824",""
"9955","0","html-button-response","22","731853","0.0-22.0","5b15307351caaf0001228d9b","5b15307351caaf0001228d9b_20240207","","","","9","7","225",""
"3975","0","html-button-response","23","736333","0.0-23.0","5b15307351caaf0001228d9b","5b15307351caaf0001228d9b_20240207","","","","7","3","904",""
"5940","0","html-button-response","24","742778","0.0-24.0","5b15307351caaf0001228d9b","5b15307351caaf0001228d9b_20240207","","","","7","8","2088",""
"5671","0","html-button-response","25","748954","0.0-25.0","5b15307351caaf0001228d9b","5b15307351caaf0001228d9b_20240207","","","","8","7","382",""
"4750","0","html-button-response","26","754208","0.0-26.0","5b15307351caaf0001228d9b","5b15307351caaf0001228d9b_20240207","","","","8","6","759",""
"5121","0","html-button-response","27","759836","0.0-27.0","5b15307351caaf0001228d9b","5b15307351caaf0001228d9b_20240207","","","","8","5","773",""
"6975","0","html-button-response","28","767316","0.0-28.0","5b15307351caaf0001228d9b","5b15307351caaf0001228d9b_20240207","","","","9","5","807",""
"3602","0","html-button-response","29","771423","0.0-29.0","5b15307351caaf0001228d9b","5b15307351caaf0001228d9b_20240207","","","","5","5","775",""
"8840","0","html-button-response","30","780769","0.0-30.0","5b15307351caaf0001228d9b","5b15307351caaf0001228d9b_20240207","","","","7","9","1045",""
"6222","0","html-button-response","31","787497","0.0-31.0","5b15307351caaf0001228d9b","5b15307351caaf0001228d9b_20240207","","","","7","4","424",""
"6423","0","html-button-response","32","794424","0.0-32.0","5b15307351caaf0001228d9b","5b15307351caaf0001228d9b_20240207","","","","8","2","1216",""
"4067","0","html-button-response","33","798997","0.0-33.0","5b15307351caaf0001228d9b","5b15307351caaf0001228d9b_20240207","","","","5","5","1995",""
"2701","0","html-button-response","34","802203","0.0-34.0","5b15307351caaf0001228d9b","5b15307351caaf0001228d9b_20240207","","","","5","5","1176",""
"4164","0","html-button-response","35","806873","0.0-35.0","5b15307351caaf0001228d9b","5b15307351caaf0001228d9b_20240207","","","","6","2","1636",""
"4447","0","html-button-response","36","811826","0.0-36.0","5b15307351caaf0001228d9b","5b15307351caaf0001228d9b_20240207","","","","7","6","1228",""
"30294","0","html-button-response","37","842625","0.0-37.0","5b15307351caaf0001228d9b","5b15307351caaf0001228d9b_20240207","","","","9","7","405",""
"19408","0","html-button-response","38","862537","0.0-38.0","5b15307351caaf0001228d9b","5b15307351caaf0001228d9b_20240207","","","","9","4","146",""
"4788","0","html-button-response","39","867831","0.0-39.0","5b15307351caaf0001228d9b","5b15307351caaf0001228d9b_20240207","","","","9","1","1741",""
"2744","0","html-button-response","40","871081","0.0-40.0","5b15307351caaf0001228d9b","5b15307351caaf0001228d9b_20240207","","","","9","1","1545",""
"4355","0","html-button-response","41","875940","0.0-41.0","5b15307351caaf0001228d9b","5b15307351caaf0001228d9b_20240207","","","","7","1","1074",""
"4515","0","html-button-response","42","880961","0.0-42.0","5b15307351caaf0001228d9b","5b15307351caaf0001228d9b_20240207","","","","8","2","1698",""
"4820","0","html-button-response","43","886288","0.0-43.0","5b15307351caaf0001228d9b","5b15307351caaf0001228d9b_20240207","","","","7","2","1595",""
"56260","0","html-button-response","44","943055","0.0-44.0","5b15307351caaf0001228d9b","5b15307351caaf0001228d9b_20240207","","","","3","5","2022",""
"4146","0","html-button-response","45","947707","0.0-45.0","5b15307351caaf0001228d9b","5b15307351caaf0001228d9b_20240207","","","","3","5","1345",""
"6764","0","html-button-response","46","954976","0.0-46.0","5b15307351caaf0001228d9b","5b15307351caaf0001228d9b_20240207","","","","9","5","40",""
"4121","0","html-button-response","47","959603","0.0-47.0","5b15307351caaf0001228d9b","5b15307351caaf0001228d9b_20240207","","","","9","7","1874",""
"39018","0","html-button-response","48","999125","0.0-48.0","5b15307351caaf0001228d9b","5b15307351caaf0001228d9b_20240207","","","","4","1","1287",""
"10373","0","html-button-response","49","1010003","0.0-49.0","5b15307351caaf0001228d9b","5b15307351caaf0001228d9b_20240207","","","","4","8","1106",""
"5633","0","html-button-response","50","1016141","0.0-50.0","5b15307351caaf0001228d9b","5b15307351caaf0001228d9b_20240207","","","","3","2","1269",""
"37262","0","html-button-response","51","1053909","0.0-51.0","5b15307351caaf0001228d9b","5b15307351caaf0001228d9b_20240207","","","","9","4","14",""
"29724","0","html-button-response","52","1084138","0.0-52.0","5b15307351caaf0001228d9b","5b15307351caaf0001228d9b_20240207","","","","2","3","500",""
"6521","0","html-button-response","53","1091165","0.0-53.0","5b15307351caaf0001228d9b","5b15307351caaf0001228d9b_20240207","","","","4","5","1282",""
"21617","0","html-button-response","54","1113288","0.0-54.0","5b15307351caaf0001228d9b","5b15307351caaf0001228d9b_20240207","","","","5","5","1666",""
"6959","0","html-button-response","55","1120751","0.0-55.0","5b15307351caaf0001228d9b","5b15307351caaf0001228d9b_20240207","","","","4","7","722",""
"7089","0","html-button-response","56","1128345","0.0-56.0","5b15307351caaf0001228d9b","5b15307351caaf0001228d9b_20240207","","","","6","1","1754",""
"8173","0","html-button-response","57","1137024","0.0-57.0","5b15307351caaf0001228d9b","5b15307351caaf0001228d9b_20240207","","","","6","2","1933",""
"11077","0","html-button-response","58","1148607","0.0-58.0","5b15307351caaf0001228d9b","5b15307351caaf0001228d9b_20240207","","","","6","9","1591",""
"4153","0","html-button-response","59","1153264","0.0-59.0","5b15307351caaf0001228d9b","5b15307351caaf0001228d9b_20240207","","","","4","9","1769",""
"4540","0","html-button-response","60","1158310","0.0-60.0","5b15307351caaf0001228d9b","5b15307351caaf0001228d9b_20240207","","","","3","3","2194",""
"3680","0","html-button-response","61","1162497","0.0-61.0","5b15307351caaf0001228d9b","5b15307351caaf0001228d9b_20240207","","","","3","8","2161",""
"4941","0","html-button-response","62","1167942","0.0-62.0","5b15307351caaf0001228d9b","5b15307351caaf0001228d9b_20240207","","","","7","2","559",""
"6656","0","html-button-response","63","1175103","0.0-63.0","5b15307351caaf0001228d9b","5b15307351caaf0001228d9b_20240207","","","","7","2","2064",""
"3080","0","html-button-response","64","1178689","0.0-64.0","5b15307351caaf0001228d9b","5b15307351caaf0001228d9b_20240207","","","","8","2","1196",""
"6281","0","html-button-response","65","1185475","0.0-65.0","5b15307351caaf0001228d9b","5b15307351caaf0001228d9b_20240207","","","","3","8","1444",""
"10735","0","html-button-response","66","1196715","0.0-66.0","5b15307351caaf0001228d9b","5b15307351caaf0001228d9b_20240207","","","","4","6","1438",""
"3559","0","html-button-response","67","1200779","0.0-67.0","5b15307351caaf0001228d9b","5b15307351caaf0001228d9b_20240207","","","","7","7","524",""
"7876","0","html-button-response","68","1209160","0.0-68.0","5b15307351caaf0001228d9b","5b15307351caaf0001228d9b_20240207","","","","3","4","414",""
"8159","0","html-button-response","69","1217824","0.0-69.0","5b15307351caaf0001228d9b","5b15307351caaf0001228d9b_20240207","","","","6","2","1909",""
"44786","0","html-button-response","70","1263113","0.0-70.0","5b15307351caaf0001228d9b","5b15307351caaf0001228d9b_20240207","","","","5","5","1007",""
"8341","0","html-button-response","71","1271958","0.0-71.0","5b15307351caaf0001228d9b","5b15307351caaf0001228d9b_20240207","","","","3","7","1460",""
"6491","0","html-button-response","72","1278953","0.0-72.0","5b15307351caaf0001228d9b","5b15307351caaf0001228d9b_20240207","","","","3","9","2126",""
"4699","0","html-button-response","73","1284157","0.0-73.0","5b15307351caaf0001228d9b","5b15307351caaf0001228d9b_20240207","","","","7","9","291",""
"5928","0","html-button-response","74","1290588","0.0-74.0","5b15307351caaf0001228d9b","5b15307351caaf0001228d9b_20240207","","","","7","6","301",""
"5429","0","html-button-response","75","1296523","0.0-75.0","5b15307351caaf0001228d9b","5b15307351caaf0001228d9b_20240207","","","","6","2","401",""
"3680","0","html-button-response","76","1300711","0.0-76.0","5b15307351caaf0001228d9b","5b15307351caaf0001228d9b_20240207","","","","9","5","211",""
"5685","0","html-button-response","77","1306901","0.0-77.0","5b15307351caaf0001228d9b","5b15307351caaf0001228d9b_20240207","","","","4","9","2124",""
"9062","0","html-button-response","78","1316467","0.0-78.0","5b15307351caaf0001228d9b","5b15307351caaf0001228d9b_20240207","","","","7","3","910",""
"2949","0","html-button-response","79","1319921","0.0-79.0","5b15307351caaf0001228d9b","5b15307351caaf0001228d9b_20240207","","","","8","2","865",""
"3867","0","html-button-response","80","1324295","0.0-80.0","5b15307351caaf0001228d9b","5b15307351caaf0001228d9b_20240207","","","","7","8","1240",""
"3835","0","html-button-response","81","1328634","0.0-81.0","5b15307351caaf0001228d9b","5b15307351caaf0001228d9b_20240207","","","","8","3","1066",""
"4917","0","html-button-response","82","1334056","0.0-82.0","5b15307351caaf0001228d9b","5b15307351caaf0001228d9b_20240207","","","","7","6","1371",""
"4507","0","html-button-response","83","1339068","0.0-83.0","5b15307351caaf0001228d9b","5b15307351caaf0001228d9b_20240207","","","","7","8","1405",""
"3111","0","html-button-response","84","1342683","0.0-84.0","5b15307351caaf0001228d9b","5b15307351caaf0001228d9b_20240207","","","","5","5","1472",""
"8272","0","html-button-response","85","1351459","0.0-85.0","5b15307351caaf0001228d9b","5b15307351caaf0001228d9b_20240207","","","","3","7","2112",""
"7077","0","html-button-response","86","1359041","0.0-86.0","5b15307351caaf0001228d9b","5b15307351caaf0001228d9b_20240207","","","","7","3","1586",""
"3893","0","html-button-response","87","1363438","0.0-87.0","5b15307351caaf0001228d9b","5b15307351caaf0001228d9b_20240207","","","","7","3","1780",""
"3012","0","html-button-response","88","1366955","0.0-88.0","5b15307351caaf0001228d9b","5b15307351caaf0001228d9b_20240207","","","","5","5","1671",""
"10289","0","html-button-response","89","1377747","0.0-89.0","5b15307351caaf0001228d9b","5b15307351caaf0001228d9b_20240207","","","","3","1","2062",""
"11757","0","html-button-response","90","1390008","0.0-90.0","5b15307351caaf0001228d9b","5b15307351caaf0001228d9b_20240207","","","","6","1","167",""
"6007","0","html-button-response","91","1396521","0.0-91.0","5b15307351caaf0001228d9b","5b15307351caaf0001228d9b_20240207","","","","3","1","819",""
"2564","0","html-button-response","92","1399591","0.0-92.0","5b15307351caaf0001228d9b","5b15307351caaf0001228d9b_20240207","","","","5","5","2189",""
"9065","0","html-button-response","93","1409160","0.0-93.0","5b15307351caaf0001228d9b","5b15307351caaf0001228d9b_20240207","","","","6","7","1524",""
"3615","0","html-button-response","94","1413281","0.0-94.0","5b15307351caaf0001228d9b","5b15307351caaf0001228d9b_20240207","","","","8","9","1016",""
"8745","0","html-button-response","95","1422535","0.0-95.0","5b15307351caaf0001228d9b","5b15307351caaf0001228d9b_20240207","","","","6","8","1214",""
"8008","0","html-button-response","96","1431049","0.0-96.0","5b15307351caaf0001228d9b","5b15307351caaf0001228d9b_20240207","","","","6","6","1202",""
"3130","0","html-button-response","97","1434685","0.0-97.0","5b15307351caaf0001228d9b","5b15307351caaf0001228d9b_20240207","","","","5","5","1646",""
"6250","0","html-button-response","98","1441441","0.0-98.0","5b15307351caaf0001228d9b","5b15307351caaf0001228d9b_20240207","","","","3","7","1458",""
"4511","0","html-button-response","99","1446457","0.0-99.0","5b15307351caaf0001228d9b","5b15307351caaf0001228d9b_20240207","","","","3","3","503",""
"3697","0","html-button-response","100","1450659","0.0-100.0","5b15307351caaf0001228d9b","5b15307351caaf0001228d9b_20240207","","","","7","8","1058",""
"2996","0","html-button-response","101","1454161","0.0-101.0","5b15307351caaf0001228d9b","5b15307351caaf0001228d9b_20240207","","","","9","9","508",""
"6177","0","html-button-response","102","1460844","0.0-102.0","5b15307351caaf0001228d9b","5b15307351caaf0001228d9b_20240207","","","","7","2","180",""
"4657","0","html-button-response","103","1466007","0.0-103.0","5b15307351caaf0001228d9b","5b15307351caaf0001228d9b_20240207","","","","9","2","1868",""
"6707","0","html-button-response","104","1473219","0.0-104.0","5b15307351caaf0001228d9b","5b15307351caaf0001228d9b_20240207","","","","2","4","983",""
"4780","0","html-button-response","105","1478505","0.0-105.0","5b15307351caaf0001228d9b","5b15307351caaf0001228d9b_20240207","","","","1","4","1687",""
"4977","0","html-button-response","106","1483989","0.0-106.0","5b15307351caaf0001228d9b","5b15307351caaf0001228d9b_20240207","","","","9","5","214",""
"3003","0","html-button-response","107","1487498","0.0-107.0","5b15307351caaf0001228d9b","5b15307351caaf0001228d9b_20240207","","","","9","5","300",""
"71148","0","html-button-response","108","1559151","0.0-108.0","5b15307351caaf0001228d9b","5b15307351caaf0001228d9b_20240207","","","","4","5","1126",""
"46540","0","html-button-response","109","1606196","0.0-109.0","5b15307351caaf0001228d9b","5b15307351caaf0001228d9b_20240207","","","","7","7","1367",""
"3750","0","html-button-response","110","1610451","0.0-110.0","5b15307351caaf0001228d9b","5b15307351caaf0001228d9b_20240207","","","","8","6","352",""
"4262","0","html-button-response","111","1615219","0.0-111.0","5b15307351caaf0001228d9b","5b15307351caaf0001228d9b_20240207","","","","4","5","1332",""
"6112","0","html-button-response","112","1621837","0.0-112.0","5b15307351caaf0001228d9b","5b15307351caaf0001228d9b_20240207","","","","6","9","1224",""
"3007","0","html-button-response","113","1625349","0.0-113.0","5b15307351caaf0001228d9b","5b15307351caaf0001228d9b_20240207","","","","7","8","1720",""
"5297","0","html-button-response","114","1631152","0.0-114.0","5b15307351caaf0001228d9b","5b15307351caaf0001228d9b_20240207","","","","3","8","1762",""
"4927","0","html-button-response","115","1636584","0.0-115.0","5b15307351caaf0001228d9b","5b15307351caaf0001228d9b_20240207","","","","5","6","1567",""
"4191","0","html-button-response","116","1641280","0.0-116.0","5b15307351caaf0001228d9b","5b15307351caaf0001228d9b_20240207","","","","8","5","394",""
"4729","0","html-button-response","117","1646515","0.0-117.0","5b15307351caaf0001228d9b","5b15307351caaf0001228d9b_20240207","","","","1","3","1324",""
"3286","0","html-button-response","118","1650306","0.0-118.0","5b15307351caaf0001228d9b","5b15307351caaf0001228d9b_20240207","","","","4","2","895",""
"3618","0","html-button-response","119","1654431","0.0-119.0","5b15307351caaf0001228d9b","5b15307351caaf0001228d9b_20240207","","","","1","2","1129",""
"4603","0","html-button-response","120","1659541","0.0-120.0","5b15307351caaf0001228d9b","5b15307351caaf0001228d9b_20240207","","","","4","4","1463",""
"7060","0","html-button-response","121","1667105","0.0-121.0","5b15307351caaf0001228d9b","5b15307351caaf0001228d9b_20240207","","","","7","5","412",""
"4949","0","html-button-response","122","1672560","0.0-122.0","5b15307351caaf0001228d9b","5b15307351caaf0001228d9b_20240207","","","","2","4","1520",""
"5047","0","html-button-response","123","1678111","0.0-123.0","5b15307351caaf0001228d9b","5b15307351caaf0001228d9b_20240207","","","","6","7","1369",""
"2516","0","html-button-response","124","1681133","0.0-124.0","5b15307351caaf0001228d9b","5b15307351caaf0001228d9b_20240207","","","","5","5","1334",""
"4825","0","html-button-response","125","1686463","0.0-125.0","5b15307351caaf0001228d9b","5b15307351caaf0001228d9b_20240207","","","","6","3","1416",""
"3809","0","html-button-response","126","1690777","0.0-126.0","5b15307351caaf0001228d9b","5b15307351caaf0001228d9b_20240207","","","","9","5","82",""
"4027","0","html-button-response","127","1695308","0.0-127.0","5b15307351caaf0001228d9b","5b15307351caaf0001228d9b_20240207","","","","8","2","1898",""
"2890","0","html-button-response","128","1698703","0.0-128.0","5b15307351caaf0001228d9b","5b15307351caaf0001228d9b_20240207","","","","9","1","530",""
"3767","0","html-button-response","129","1702975","0.0-129.0","5b15307351caaf0001228d9b","5b15307351caaf0001228d9b_20240207","","","","9","9","848",""
"4752","0","html-button-response","130","1708233","0.0-130.0","5b15307351caaf0001228d9b","5b15307351caaf0001228d9b_20240207","","","","4","2","138",""
"3709","0","html-button-response","131","1712446","0.0-131.0","5b15307351caaf0001228d9b","5b15307351caaf0001228d9b_20240207","","","","3","5","2180",""
"4815","0","html-button-response","132","1717767","0.0-132.0","5b15307351caaf0001228d9b","5b15307351caaf0001228d9b_20240207","","","","3","2","156",""
"4611","0","html-button-response","133","1722883","0.0-133.0","5b15307351caaf0001228d9b","5b15307351caaf0001228d9b_20240207","","","","7","7","1384",""
"4537","0","html-button-response","134","1727926","0.0-134.0","5b15307351caaf0001228d9b","5b15307351caaf0001228d9b_20240207","","","","1","7","797",""
"5308","0","html-button-response","135","1733741","0.0-135.0","5b15307351caaf0001228d9b","5b15307351caaf0001228d9b_20240207","","","","7","3","556",""
"2865","0","html-button-response","136","1737111","0.0-136.0","5b15307351caaf0001228d9b","5b15307351caaf0001228d9b_20240207","","","","5","5","1473",""
"3738","0","html-button-response","137","1741355","0.0-137.0","5b15307351caaf0001228d9b","5b15307351caaf0001228d9b_20240207","","","","6","7","1735",""
"5260","0","html-button-response","138","1747122","0.0-138.0","5b15307351caaf0001228d9b","5b15307351caaf0001228d9b_20240207","","","","6","2","1035",""
"4560","0","html-button-response","139","1752186","0.0-139.0","5b15307351caaf0001228d9b","5b15307351caaf0001228d9b_20240207","","","","1","9","1432",""
"4003","0","html-button-response","140","1756695","0.0-140.0","5b15307351caaf0001228d9b","5b15307351caaf0001228d9b_20240207","","","","6","3","1611",""
"8153","0","html-button-response","141","1765352","0.0-141.0","5b15307351caaf0001228d9b","5b15307351caaf0001228d9b_20240207","","","","5","5","1112",""
"4612","0","html-button-response","142","1770469","0.0-142.0","5b15307351caaf0001228d9b","5b15307351caaf0001228d9b_20240207","","","","6","5","1002",""
"3321","0","html-button-response","143","1774297","0.0-143.0","5b15307351caaf0001228d9b","5b15307351caaf0001228d9b_20240207","","","","5","5","1342",""
"3052","0","html-button-response","144","1777853","0.0-144.0","5b15307351caaf0001228d9b","5b15307351caaf0001228d9b_20240207","","","","6","4","2131",""
"3570","0","html-button-response","145","1781928","0.0-145.0","5b15307351caaf0001228d9b","5b15307351caaf0001228d9b_20240207","","","","4","4","1311",""
"2747","0","html-button-response","146","1785180","0.0-146.0","5b15307351caaf0001228d9b","5b15307351caaf0001228d9b_20240207","","","","7","5","430",""
"3200","0","html-button-response","147","1788886","0.0-147.0","5b15307351caaf0001228d9b","5b15307351caaf0001228d9b_20240207","","","","8","8","2056",""
"2669","0","html-button-response","148","1792059","0.0-148.0","5b15307351caaf0001228d9b","5b15307351caaf0001228d9b_20240207","","","","8","2","194",""
"3928","0","html-button-response","149","1796493","0.0-149.0","5b15307351caaf0001228d9b","5b15307351caaf0001228d9b_20240207","","","","4","7","1825",""
"3359","0","html-button-response","150","1800357","0.0-150.0","5b15307351caaf0001228d9b","5b15307351caaf0001228d9b_20240207","","","","7","3","1374",""
"44599","0","html-button-response","151","1845462","0.0-151.0","5b15307351caaf0001228d9b","5b15307351caaf0001228d9b_20240207","","","","2","2","468",""
"41305","0","html-button-response","152","1887273","0.0-152.0","5b15307351caaf0001228d9b","5b15307351caaf0001228d9b_20240207","","","","7","2","1404",""
"3463","0","html-button-response","153","1891241","0.0-153.0","5b15307351caaf0001228d9b","5b15307351caaf0001228d9b_20240207","","","","7","2","1235",""
"5336","0","html-button-response","154","1897083","0.0-154.0","5b15307351caaf0001228d9b","5b15307351caaf0001228d9b_20240207","","","","6","3","1242",""
"7862","0","html-button-response","155","1905449","0.0-155.0","5b15307351caaf0001228d9b","5b15307351caaf0001228d9b_20240207","","","","4","2","64",""
"3977","0","html-button-response","156","1909933","0.0-156.0","5b15307351caaf0001228d9b","5b15307351caaf0001228d9b_20240207","","","","7","5","758",""
"3484","0","html-button-response","157","1913923","0.0-157.0","5b15307351caaf0001228d9b","5b15307351caaf0001228d9b_20240207","","","","3","5","1521",""
"4112","0","html-button-response","158","1918541","0.0-158.0","5b15307351caaf0001228d9b","5b15307351caaf0001228d9b_20240207","","","","2","2","622",""
"2747","0","html-button-response","159","1921793","0.0-159.0","5b15307351caaf0001228d9b","5b15307351caaf0001228d9b_20240207","","","","7","8","1539",""
"3633","0","html-button-response","160","1925934","0.0-160.0","5b15307351caaf0001228d9b","5b15307351caaf0001228d9b_20240207","","","","7","2","1361",""
"2564","0","html-button-response","161","1929003","0.0-161.0","5b15307351caaf0001228d9b","5b15307351caaf0001228d9b_20240207","","","","5","5","1320",""
"4204","0","html-button-response","162","1933711","0.0-162.0","5b15307351caaf0001228d9b","5b15307351caaf0001228d9b_20240207","","","","4","7","1437",""
"3684","0","html-button-response","163","1937900","0.0-163.0","5b15307351caaf0001228d9b","5b15307351caaf0001228d9b_20240207","","","","9","1","856",""
"2641","0","html-button-response","164","1941047","0.0-164.0","5b15307351caaf0001228d9b","5b15307351caaf0001228d9b_20240207","","","","9","9","1197",""
"3693","0","html-button-response","165","1945245","0.0-165.0","5b15307351caaf0001228d9b","5b15307351caaf0001228d9b_20240207","","","","9","5","744",""
"3275","0","html-button-response","166","1949025","0.0-166.0","5b15307351caaf0001228d9b","5b15307351caaf0001228d9b_20240207","","","","5","5","2177",""
"3409","0","html-button-response","167","1952939","0.0-167.0","5b15307351caaf0001228d9b","5b15307351caaf0001228d9b_20240207","","","","8","8","1186",""
"2694","0","html-button-response","168","1956137","0.0-168.0","5b15307351caaf0001228d9b","5b15307351caaf0001228d9b_20240207","","","","8","2","724",""
"3069","0","html-button-response","169","1959711","0.0-169.0","5b15307351caaf0001228d9b","5b15307351caaf0001228d9b_20240207","","","","2","2","51",""
"3668","0","html-button-response","170","1963885","0.0-170.0","5b15307351caaf0001228d9b","5b15307351caaf0001228d9b_20240207","","","","4","5","1658",""
"4875","0","html-button-response","171","1969265","0.0-171.0","5b15307351caaf0001228d9b","5b15307351caaf0001228d9b_20240207","","","","3","8","1616",""
"3710","0","html-button-response","172","1973482","0.0-172.0","5b15307351caaf0001228d9b","5b15307351caaf0001228d9b_20240207","","","","7","8","1914",""
"4539","0","html-button-response","173","1978526","0.0-173.0","5b15307351caaf0001228d9b","5b15307351caaf0001228d9b_20240207","","","","2","2","818",""
"4440","0","html-button-response","174","1983472","0.0-174.0","5b15307351caaf0001228d9b","5b15307351caaf0001228d9b_20240207","","","","4","3","1906",""
"3812","0","html-button-response","175","1987789","0.0-175.0","5b15307351caaf0001228d9b","5b15307351caaf0001228d9b_20240207","","","","3","3","89",""
"4530","0","html-button-response","176","1992825","0.0-176.0","5b15307351caaf0001228d9b","5b15307351caaf0001228d9b_20240207","","","","1","1","325",""
"5557","0","html-button-response","177","1998888","0.0-177.0","5b15307351caaf0001228d9b","5b15307351caaf0001228d9b_20240207","","","","6","2","892",""
"2962","0","html-button-response","178","2002355","0.0-178.0","5b15307351caaf0001228d9b","5b15307351caaf0001228d9b_20240207","","","","8","8","1548",""
"7886","0","html-button-response","179","2010749","0.0-179.0","5b15307351caaf0001228d9b","5b15307351caaf0001228d9b_20240207","","","","2","3","778",""
"3161","0","html-button-response","180","2014415","0.0-180.0","5b15307351caaf0001228d9b","5b15307351caaf0001228d9b_20240207","","","","9","5","183",""
"5052","0","html-button-response","181","2019971","0.0-181.0","5b15307351caaf0001228d9b","5b15307351caaf0001228d9b_20240207","","","","8","7","2072",""
"3054","0","html-button-response","182","2023531","0.0-182.0","5b15307351caaf0001228d9b","5b15307351caaf0001228d9b_20240207","","","","1","1","161",""
"5685","0","html-button-response","183","2029722","0.0-183.0","5b15307351caaf0001228d9b","5b15307351caaf0001228d9b_20240207","","","","3","5","2001",""
"3381","0","html-button-response","184","2033609","0.0-184.0","5b15307351caaf0001228d9b","5b15307351caaf0001228d9b_20240207","","","","8","5","96",""
"3664","0","html-button-response","185","2037778","0.0-185.0","5b15307351caaf0001228d9b","5b15307351caaf0001228d9b_20240207","","","","7","2","207",""
"3797","0","html-button-response","186","2042080","0.0-186.0","5b15307351caaf0001228d9b","5b15307351caaf0001228d9b_20240207","","","","6","8","2120",""
"8121","0","html-button-response","187","2050707","0.0-187.0","5b15307351caaf0001228d9b","5b15307351caaf0001228d9b_20240207","","","","7","7","1915",""
"4166","0","html-button-response","188","2055378","0.0-188.0","5b15307351caaf0001228d9b","5b15307351caaf0001228d9b_20240207","","","","7","5","525",""
"7936","0","html-button-response","189","2063819","0.0-189.0","5b15307351caaf0001228d9b","5b15307351caaf0001228d9b_20240207","","","","7","5","136",""
"3166","0","html-button-response","190","2067491","0.0-190.0","5b15307351caaf0001228d9b","5b15307351caaf0001228d9b_20240207","","","","7","3","1088",""
"4277","0","html-button-response","191","2072274","0.0-191.0","5b15307351caaf0001228d9b","5b15307351caaf0001228d9b_20240207","","","","4","4","1805",""
"3651","0","html-button-response","192","2076431","0.0-192.0","5b15307351caaf0001228d9b","5b15307351caaf0001228d9b_20240207","","","","7","5","757",""
"5031","0","html-button-response","193","2081968","0.0-193.0","5b15307351caaf0001228d9b","5b15307351caaf0001228d9b_20240207","","","","8","8","860",""
"3572","0","html-button-response","194","2086045","0.0-194.0","5b15307351caaf0001228d9b","5b15307351caaf0001228d9b_20240207","","","","8","5","548",""
"10949","0","html-button-response","195","2097501","0.0-195.0","5b15307351caaf0001228d9b","5b15307351caaf0001228d9b_20240207","","","","4","4","2102",""
"3967","0","html-button-response","196","2101973","0.0-196.0","5b15307351caaf0001228d9b","5b15307351caaf0001228d9b_20240207","","","","8","2","700",""
"6841","0","html-button-response","197","2109320","0.0-197.0","5b15307351caaf0001228d9b","5b15307351caaf0001228d9b_20240207","","","","8","5","443",""
"20070","0","html-button-response","198","2129895","0.0-198.0","5b15307351caaf0001228d9b","5b15307351caaf0001228d9b_20240207","","","","3","3","594",""
"3046","0","html-button-response","199","2133447","0.0-199.0","5b15307351caaf0001228d9b","5b15307351caaf0001228d9b_20240207","","","","5","5","1268",""
"7117","0","html-button-response","200","2141069","0.0-200.0","5b15307351caaf0001228d9b","5b15307351caaf0001228d9b_20240207","","","","2","3","2015",""
"3426","0","html-button-response","201","2145002","0.0-201.0","5b15307351caaf0001228d9b","5b15307351caaf0001228d9b_20240207","","","","7","7","1770",""
"7580","0","html-button-response","202","2153086","0.0-202.0","5b15307351caaf0001228d9b","5b15307351caaf0001228d9b_20240207","","","","3","4","437",""
"3717","0","html-button-response","203","2157307","0.0-203.0","5b15307351caaf0001228d9b","5b15307351caaf0001228d9b_20240207","","","","7","3","1597",""
"3268","0","html-button-response","204","2161080","0.0-204.0","5b15307351caaf0001228d9b","5b15307351caaf0001228d9b_20240207","","","","3","3","791",""
"6579","0","html-button-response","205","2168165","0.0-205.0","5b15307351caaf0001228d9b","5b15307351caaf0001228d9b_20240207","","","","8","3","1190",""
"12924","0","html-button-response","206","2181594","0.0-206.0","5b15307351caaf0001228d9b","5b15307351caaf0001228d9b_20240207","","","","7","5","62",""
"6093","0","html-button-response","207","2188192","0.0-207.0","5b15307351caaf0001228d9b","5b15307351caaf0001228d9b_20240207","","","","8","6","1892",""
"5646","0","html-button-response","208","2194344","0.0-208.0","5b15307351caaf0001228d9b","5b15307351caaf0001228d9b_20240207","","","","2","4","1283",""
"12062","0","html-button-response","209","2206911","0.0-209.0","5b15307351caaf0001228d9b","5b15307351caaf0001228d9b_20240207","","","","3","5","764",""
"4318","0","html-button-response","210","2211734","0.0-210.0","5b15307351caaf0001228d9b","5b15307351caaf0001228d9b_20240207","","","","8","5","371",""
"3591","0","html-button-response","211","2215831","0.0-211.0","5b15307351caaf0001228d9b","5b15307351caaf0001228d9b_20240207","","","","6","6","1094",""
"2320","0","html-button-response","212","2218655","0.0-212.0","5b15307351caaf0001228d9b","5b15307351caaf0001228d9b_20240207","","","","5","5","1840",""
"5089","0","html-button-response","213","2224250","0.0-213.0","5b15307351caaf0001228d9b","5b15307351caaf0001228d9b_20240207","","","","6","8","1068",""
"3678","0","html-button-response","214","2228433","0.0-214.0","5b15307351caaf0001228d9b","5b15307351caaf0001228d9b_20240207","","","","3","3","1482",""
"6000","0","html-button-response","215","2234939","0.0-215.0","5b15307351caaf0001228d9b","5b15307351caaf0001228d9b_20240207","","","","8","5","353",""
"2978","0","html-button-response","216","2238422","0.0-216.0","5b15307351caaf0001228d9b","5b15307351caaf0001228d9b_20240207","","","","7","5","915",""
"3218","0","html-button-response","217","2242145","0.0-217.0","5b15307351caaf0001228d9b","5b15307351caaf0001228d9b_20240207","","","","3","5","654",""
"4054","0","html-button-response","218","2246706","0.0-218.0","5b15307351caaf0001228d9b","5b15307351caaf0001228d9b_20240207","","","","7","3","389",""
"4499","0","html-button-response","219","2251712","0.0-219.0","5b15307351caaf0001228d9b","5b15307351caaf0001228d9b_20240207","","","","7","8","1017",""
"4659","0","html-button-response","220","2256876","0.0-220.0","5b15307351caaf0001228d9b","5b15307351caaf0001228d9b_20240207","","","","2","2","154",""
"5125","0","html-button-response","221","2262506","0.0-221.0","5b15307351caaf0001228d9b","5b15307351caaf0001228d9b_20240207","","","","7","5","393",""
"5900","0","html-button-response","222","2268911","0.0-222.0","5b15307351caaf0001228d9b","5b15307351caaf0001228d9b_20240207","","","","6","3","2129",""
"4563","0","html-button-response","223","2273980","0.0-223.0","5b15307351caaf0001228d9b","5b15307351caaf0001228d9b_20240207","","","","5","5","2182",""
"3184","0","html-button-response","224","2277668","0.0-224.0","5b15307351caaf0001228d9b","5b15307351caaf0001228d9b_20240207","","","","5","5","1661",""
"1931","0","html-button-response","225","2280103","0.0-225.0","5b15307351caaf0001228d9b","5b15307351caaf0001228d9b_20240207","","","Thank you. You have reached the end. 
                       <br>Click the button below to reveal your compensation.
                        <br><br>","","","","330,332,1036,606,1531,1503,469,1635,845,1277,2031,1044,950,770,1852,1984,1824,225,904,2088,382,759,773,807,775,1045,424,1216,1995,1176,1636,1228,405,146,1741,1545,1074,1698,1595,2022,1345,40,1874,1287,1106,1269,14,500,1282,1666,722,1754,1933,1591,1769,2194,2161,559,2064,1196,1444,1438,524,414,1909,1007,1460,2126,291,301,401,211,2124,910,865,1240,1066,1371,1405,1472,2112,1586,1780,1671,2062,167,819,2189,1524,1016,1214,1202,1646,1458,503,1058,508,180,1868,983,1687,214,300,1126,1367,352,1332,1224,1720,1762,1567,394,1324,895,1129,1463,412,1520,1369,1334,1416,82,1898,530,848,138,2180,156,1384,797,556,1473,1735,1035,1432,1611,1112,1002,1342,2131,1311,430,2056,194,1825,1374,468,1404,1235,1242,64,758,1521,622,1539,1361,1320,1437,856,1197,744,2177,1186,724,51,1658,1616,1914,818,1906,89,325,892,1548,778,183,2072,161,2001,96,207,2120,1915,525,136,1088,1805,757,860,548,2102,700,443,594,1268,2015,1770,437,1597,791,1190,62,1892,1283,764,371,1094,1840,1068,1482,353,915,654,389,1017,154,393,2129,2182,1661"
