"rt","response","trial_type","trial_index","time_elapsed","internal_node_id","part_ID","ID_DATE","screen_id","understand_correct","stimulus","arousal","valence","img_id","tested_trial_idx"
"6456","0","html-button-response","0","6464","0.0-0.0","65ab5b0559ed95e63d138a48","65ab5b0559ed95e63d138a48_20240207","","","","","","",""
"11604","[object Object]","survey-html-form","1","18577","0.0-1.0","65ab5b0559ed95e63d138a48","65ab5b0559ed95e63d138a48_20240207","prolific_id_page","","","","","",""
"13652","0","html-button-response","2","32232","0.0-2.0","65ab5b0559ed95e63d138a48","65ab5b0559ed95e63d138a48_20240207","","","","","","",""
"120696","0","html-button-response","3","153445","0.0-3.0-0.0","65ab5b0559ed95e63d138a48","65ab5b0559ed95e63d138a48_20240207","","true","","","","",""
"1585","0","html-button-response","4","155539","0.0-4.0","65ab5b0559ed95e63d138a48","65ab5b0559ed95e63d138a48_20240207","","","
<div>
Great! You will now go on to rate the faces.
<br><br>
</div>
","","","",""
"8505","0","html-button-response","5","164562","0.0-5.0","65ab5b0559ed95e63d138a48","65ab5b0559ed95e63d138a48_20240207","","","","5","9","2172",""
"5063","0","html-button-response","6","170139","0.0-6.0","65ab5b0559ed95e63d138a48","65ab5b0559ed95e63d138a48_20240207","","","","5","1","983",""
"3104","0","html-button-response","7","173751","0.0-7.0","65ab5b0559ed95e63d138a48","65ab5b0559ed95e63d138a48_20240207","","","","5","1","556",""
"5226","0","html-button-response","8","179487","0.0-8.0","65ab5b0559ed95e63d138a48","65ab5b0559ed95e63d138a48_20240207","","","","7","9","548",""
"71064","0","html-button-response","9","251059","0.0-9.0","65ab5b0559ed95e63d138a48","65ab5b0559ed95e63d138a48_20240207","","","","5","9","1589",""
"10913","0","html-button-response","10","262479","0.0-10.0","65ab5b0559ed95e63d138a48","65ab5b0559ed95e63d138a48_20240207","","","","2","9","926",""
"6303","0","html-button-response","11","269294","0.0-11.0","65ab5b0559ed95e63d138a48","65ab5b0559ed95e63d138a48_20240207","","","","9","5","1164",""
"3750","0","html-button-response","12","273559","0.0-12.0","65ab5b0559ed95e63d138a48","65ab5b0559ed95e63d138a48_20240207","","","","5","1","114",""
"2984","0","html-button-response","13","277055","0.0-13.0","65ab5b0559ed95e63d138a48","65ab5b0559ed95e63d138a48_20240207","","","","5","1","1780",""
"9556","0","html-button-response","14","287119","0.0-14.0","65ab5b0559ed95e63d138a48","65ab5b0559ed95e63d138a48_20240207","","","","9","9","84",""
"23410","0","html-button-response","15","311036","0.0-15.0","65ab5b0559ed95e63d138a48","65ab5b0559ed95e63d138a48_20240207","","","","9","9","616",""
"11916","0","html-button-response","16","323468","0.0-16.0","65ab5b0559ed95e63d138a48","65ab5b0559ed95e63d138a48_20240207","","","","5","1","651",""
"4955","0","html-button-response","17","328929","0.0-17.0","65ab5b0559ed95e63d138a48","65ab5b0559ed95e63d138a48_20240207","","","","5","5","978",""
"3007","0","html-button-response","18","332448","0.0-18.0","65ab5b0559ed95e63d138a48","65ab5b0559ed95e63d138a48_20240207","","","","5","1","967",""
"3532","0","html-button-response","19","336484","0.0-19.0","65ab5b0559ed95e63d138a48","65ab5b0559ed95e63d138a48_20240207","","","","5","9","340",""
"6450","0","html-button-response","20","343440","0.0-20.0","65ab5b0559ed95e63d138a48","65ab5b0559ed95e63d138a48_20240207","","","","5","5","1107",""
"3018","0","html-button-response","21","346977","0.0-21.0","65ab5b0559ed95e63d138a48","65ab5b0559ed95e63d138a48_20240207","","","","5","5","834",""
"2607","0","html-button-response","22","350102","0.0-22.0","65ab5b0559ed95e63d138a48","65ab5b0559ed95e63d138a48_20240207","","","","5","1","520",""
"28892","0","html-button-response","23","379506","0.0-23.0","65ab5b0559ed95e63d138a48","65ab5b0559ed95e63d138a48_20240207","","","","5","5","484",""
"3461","0","html-button-response","24","383472","0.0-24.0","65ab5b0559ed95e63d138a48","65ab5b0559ed95e63d138a48_20240207","","","","5","1","270",""
"2772","0","html-button-response","25","386751","0.0-25.0","65ab5b0559ed95e63d138a48","65ab5b0559ed95e63d138a48_20240207","","","","5","9","1879",""
"3021","0","html-button-response","26","390275","0.0-26.0","65ab5b0559ed95e63d138a48","65ab5b0559ed95e63d138a48_20240207","","","","5","9","1605",""
"3038","0","html-button-response","27","393826","0.0-27.0","65ab5b0559ed95e63d138a48","65ab5b0559ed95e63d138a48_20240207","","","","1","5","1856",""
"3667","0","html-button-response","28","398012","0.0-28.0","65ab5b0559ed95e63d138a48","65ab5b0559ed95e63d138a48_20240207","","","","9","9","405",""
"2689","0","html-button-response","29","401212","0.0-29.0","65ab5b0559ed95e63d138a48","65ab5b0559ed95e63d138a48_20240207","","","","5","5","2011",""
"2615","0","html-button-response","30","404341","0.0-30.0","65ab5b0559ed95e63d138a48","65ab5b0559ed95e63d138a48_20240207","","","","5","9","1866",""
"2476","0","html-button-response","31","407326","0.0-31.0","65ab5b0559ed95e63d138a48","65ab5b0559ed95e63d138a48_20240207","","","","5","1","77",""
"3766","0","html-button-response","32","411605","0.0-32.0","65ab5b0559ed95e63d138a48","65ab5b0559ed95e63d138a48_20240207","","","","1","5","944",""
"3093","0","html-button-response","33","415205","0.0-33.0","65ab5b0559ed95e63d138a48","65ab5b0559ed95e63d138a48_20240207","","","","5","9","707",""
"3120","0","html-button-response","34","418833","0.0-34.0","65ab5b0559ed95e63d138a48","65ab5b0559ed95e63d138a48_20240207","","","","5","1","790",""
"3160","0","html-button-response","35","422506","0.0-35.0","65ab5b0559ed95e63d138a48","65ab5b0559ed95e63d138a48_20240207","","","","5","1","503",""
"2680","0","html-button-response","36","425691","0.0-36.0","65ab5b0559ed95e63d138a48","65ab5b0559ed95e63d138a48_20240207","","","","5","5","950",""
"7445","0","html-button-response","37","433644","0.0-37.0","65ab5b0559ed95e63d138a48","65ab5b0559ed95e63d138a48_20240207","","","","9","1","1363",""
"6408","0","html-button-response","38","440566","0.0-38.0","65ab5b0559ed95e63d138a48","65ab5b0559ed95e63d138a48_20240207","","","","1","9","1020",""
"3287","0","html-button-response","39","444365","0.0-39.0","65ab5b0559ed95e63d138a48","65ab5b0559ed95e63d138a48_20240207","","","","5","5","985",""
"4942","0","html-button-response","40","449818","0.0-40.0","65ab5b0559ed95e63d138a48","65ab5b0559ed95e63d138a48_20240207","","","","9","9","408",""
"2673","0","html-button-response","41","453005","0.0-41.0","65ab5b0559ed95e63d138a48","65ab5b0559ed95e63d138a48_20240207","","","","5","9","508",""
"28893","0","html-button-response","42","482413","0.0-42.0","65ab5b0559ed95e63d138a48","65ab5b0559ed95e63d138a48_20240207","","","","5","9","1044",""
"2398","0","html-button-response","43","485320","0.0-43.0","65ab5b0559ed95e63d138a48","65ab5b0559ed95e63d138a48_20240207","","","","5","5","1957",""
"2552","0","html-button-response","44","488379","0.0-44.0","65ab5b0559ed95e63d138a48","65ab5b0559ed95e63d138a48_20240207","","","","5","5","734",""
"2390","0","html-button-response","45","491278","0.0-45.0","65ab5b0559ed95e63d138a48","65ab5b0559ed95e63d138a48_20240207","","","","5","1","779",""
"3530","0","html-button-response","46","495325","0.0-46.0","65ab5b0559ed95e63d138a48","65ab5b0559ed95e63d138a48_20240207","","","","5","5","1266",""
"2548","0","html-button-response","47","498381","0.0-47.0","65ab5b0559ed95e63d138a48","65ab5b0559ed95e63d138a48_20240207","","","","5","1","1583",""
"2824","0","html-button-response","48","501708","0.0-48.0","65ab5b0559ed95e63d138a48","65ab5b0559ed95e63d138a48_20240207","","","","5","5","966",""
"2423","0","html-button-response","49","504641","0.0-49.0","65ab5b0559ed95e63d138a48","65ab5b0559ed95e63d138a48_20240207","","","","5","1","1833",""
"2735","0","html-button-response","50","507889","0.0-50.0","65ab5b0559ed95e63d138a48","65ab5b0559ed95e63d138a48_20240207","","","","5","5","1850",""
"2763","0","html-button-response","51","511173","0.0-51.0","65ab5b0559ed95e63d138a48","65ab5b0559ed95e63d138a48_20240207","","","","5","1","662",""
"3247","0","html-button-response","52","514930","0.0-52.0","65ab5b0559ed95e63d138a48","65ab5b0559ed95e63d138a48_20240207","","","","1","9","123",""
"2847","0","html-button-response","53","518284","0.0-53.0","65ab5b0559ed95e63d138a48","65ab5b0559ed95e63d138a48_20240207","","","","1","9","229",""
"6145","0","html-button-response","54","524935","0.0-54.0","65ab5b0559ed95e63d138a48","65ab5b0559ed95e63d138a48_20240207","","","","1","1","685",""
"2507","0","html-button-response","55","527956","0.0-55.0","65ab5b0559ed95e63d138a48","65ab5b0559ed95e63d138a48_20240207","","","","1","1","695",""
"2166","0","html-button-response","56","530631","0.0-56.0","65ab5b0559ed95e63d138a48","65ab5b0559ed95e63d138a48_20240207","","","","5","5","1489",""
"6171","0","html-button-response","57","537310","0.0-57.0","65ab5b0559ed95e63d138a48","65ab5b0559ed95e63d138a48_20240207","","","","5","1","948",""
"2602","0","html-button-response","58","540418","0.0-58.0","65ab5b0559ed95e63d138a48","65ab5b0559ed95e63d138a48_20240207","","","","5","1","1390",""
"14200","0","html-button-response","59","555123","0.0-59.0","65ab5b0559ed95e63d138a48","65ab5b0559ed95e63d138a48_20240207","","","","5","5","2164",""
"2644","0","html-button-response","60","558281","0.0-60.0","65ab5b0559ed95e63d138a48","65ab5b0559ed95e63d138a48_20240207","","","","5","1","658",""
"2546","0","html-button-response","61","561331","0.0-61.0","65ab5b0559ed95e63d138a48","65ab5b0559ed95e63d138a48_20240207","","","","5","1","306",""
"20133","0","html-button-response","62","581977","0.0-62.0","65ab5b0559ed95e63d138a48","65ab5b0559ed95e63d138a48_20240207","","","","5","5","2009",""
"3421","0","html-button-response","63","585901","0.0-63.0","65ab5b0559ed95e63d138a48","65ab5b0559ed95e63d138a48_20240207","","","","5","1","803",""
"2549","0","html-button-response","64","588957","0.0-64.0","65ab5b0559ed95e63d138a48","65ab5b0559ed95e63d138a48_20240207","","","","5","1","260",""
"2319","0","html-button-response","65","591784","0.0-65.0","65ab5b0559ed95e63d138a48","65ab5b0559ed95e63d138a48_20240207","","","","5","5","1504",""
"3320","0","html-button-response","66","595615","0.0-66.0","65ab5b0559ed95e63d138a48","65ab5b0559ed95e63d138a48_20240207","","","","5","1","323",""
"2398","0","html-button-response","67","598525","0.0-67.0","65ab5b0559ed95e63d138a48","65ab5b0559ed95e63d138a48_20240207","","","","5","1","245",""
"2186","0","html-button-response","68","601217","0.0-68.0","65ab5b0559ed95e63d138a48","65ab5b0559ed95e63d138a48_20240207","","","","5","9","1695",""
"2212","0","html-button-response","69","603941","0.0-69.0","65ab5b0559ed95e63d138a48","65ab5b0559ed95e63d138a48_20240207","","","","5","5","1968",""
"2748","0","html-button-response","70","607199","0.0-70.0","65ab5b0559ed95e63d138a48","65ab5b0559ed95e63d138a48_20240207","","","","5","1","78",""
"2336","0","html-button-response","71","610046","0.0-71.0","65ab5b0559ed95e63d138a48","65ab5b0559ed95e63d138a48_20240207","","","","5","9","267",""
"2365","0","html-button-response","72","612919","0.0-72.0","65ab5b0559ed95e63d138a48","65ab5b0559ed95e63d138a48_20240207","","","","5","5","1790",""
"2435","0","html-button-response","73","615864","0.0-73.0","65ab5b0559ed95e63d138a48","65ab5b0559ed95e63d138a48_20240207","","","","5","5","101",""
"8336","0","html-button-response","74","624714","0.0-74.0","65ab5b0559ed95e63d138a48","65ab5b0559ed95e63d138a48_20240207","","","","5","9","1615",""
"3872","0","html-button-response","75","629097","0.0-75.0","65ab5b0559ed95e63d138a48","65ab5b0559ed95e63d138a48_20240207","","","","9","9","1058",""
"2292","0","html-button-response","76","631894","0.0-76.0","65ab5b0559ed95e63d138a48","65ab5b0559ed95e63d138a48_20240207","","","","5","9","1433",""
"4093","0","html-button-response","77","636496","0.0-77.0","65ab5b0559ed95e63d138a48","65ab5b0559ed95e63d138a48_20240207","","","","5","1","479",""
"58924","0","html-button-response","78","695939","0.0-78.0","65ab5b0559ed95e63d138a48","65ab5b0559ed95e63d138a48_20240207","","","","5","9","1614",""
"2716","0","html-button-response","79","699173","0.0-79.0","65ab5b0559ed95e63d138a48","65ab5b0559ed95e63d138a48_20240207","","","","5","1","59",""
"4329","0","html-button-response","80","704006","0.0-80.0","65ab5b0559ed95e63d138a48","65ab5b0559ed95e63d138a48_20240207","","","","5","9","1761",""
"10927","0","html-button-response","81","715443","0.0-81.0","65ab5b0559ed95e63d138a48","65ab5b0559ed95e63d138a48_20240207","","","","5","5","1093",""
"4226","0","html-button-response","82","720171","0.0-82.0","65ab5b0559ed95e63d138a48","65ab5b0559ed95e63d138a48_20240207","","","","5","1","187",""
"2387","0","html-button-response","83","723066","0.0-83.0","65ab5b0559ed95e63d138a48","65ab5b0559ed95e63d138a48_20240207","","","","5","1","1047",""
"3043","0","html-button-response","84","726612","0.0-84.0","65ab5b0559ed95e63d138a48","65ab5b0559ed95e63d138a48_20240207","","","","5","1","1453",""
"1998","0","html-button-response","85","729118","0.0-85.0","65ab5b0559ed95e63d138a48","65ab5b0559ed95e63d138a48_20240207","","","","5","5","1992",""
"2897","0","html-button-response","86","732526","0.0-86.0","65ab5b0559ed95e63d138a48","65ab5b0559ed95e63d138a48_20240207","","","","9","5","1985",""
"2329","0","html-button-response","87","735366","0.0-87.0","65ab5b0559ed95e63d138a48","65ab5b0559ed95e63d138a48_20240207","","","","5","9","1537",""
"7849","0","html-button-response","88","743722","0.0-88.0","65ab5b0559ed95e63d138a48","65ab5b0559ed95e63d138a48_20240207","","","","9","1","877",""
"2498","0","html-button-response","89","746731","0.0-89.0","65ab5b0559ed95e63d138a48","65ab5b0559ed95e63d138a48_20240207","","","","5","1","429",""
"2164","0","html-button-response","90","749408","0.0-90.0","65ab5b0559ed95e63d138a48","65ab5b0559ed95e63d138a48_20240207","","","","5","1","2054",""
"1995","0","html-button-response","91","751913","0.0-91.0","65ab5b0559ed95e63d138a48","65ab5b0559ed95e63d138a48_20240207","","","","5","1","1495",""
"2043","0","html-button-response","92","754465","0.0-92.0","65ab5b0559ed95e63d138a48","65ab5b0559ed95e63d138a48_20240207","","","","5","1","230",""
"3055","0","html-button-response","93","758031","0.0-93.0","65ab5b0559ed95e63d138a48","65ab5b0559ed95e63d138a48_20240207","","","","5","1","626",""
"2118","0","html-button-response","94","760661","0.0-94.0","65ab5b0559ed95e63d138a48","65ab5b0559ed95e63d138a48_20240207","","","","5","1","157",""
"3293","0","html-button-response","95","764467","0.0-95.0","65ab5b0559ed95e63d138a48","65ab5b0559ed95e63d138a48_20240207","","","","5","9","1756",""
"4788","0","html-button-response","96","769771","0.0-96.0","65ab5b0559ed95e63d138a48","65ab5b0559ed95e63d138a48_20240207","","","","5","1","501",""
"4081","0","html-button-response","97","774366","0.0-97.0","65ab5b0559ed95e63d138a48","65ab5b0559ed95e63d138a48_20240207","","","","5","1","879",""
"4259","0","html-button-response","98","779134","0.0-98.0","65ab5b0559ed95e63d138a48","65ab5b0559ed95e63d138a48_20240207","","","","5","9","2112",""
"2582","0","html-button-response","99","782220","0.0-99.0","65ab5b0559ed95e63d138a48","65ab5b0559ed95e63d138a48_20240207","","","","5","1","1152",""
"2215","0","html-button-response","100","784945","0.0-100.0","65ab5b0559ed95e63d138a48","65ab5b0559ed95e63d138a48_20240207","","","","5","1","645",""
"3256","0","html-button-response","101","788705","0.0-101.0","65ab5b0559ed95e63d138a48","65ab5b0559ed95e63d138a48_20240207","","","","5","1","231",""
"2190","0","html-button-response","102","791404","0.0-102.0","65ab5b0559ed95e63d138a48","65ab5b0559ed95e63d138a48_20240207","","","","5","1","793",""
"2992","0","html-button-response","103","794904","0.0-103.0","65ab5b0559ed95e63d138a48","65ab5b0559ed95e63d138a48_20240207","","","","5","5","1119",""
"2948","0","html-button-response","104","798370","0.0-104.0","65ab5b0559ed95e63d138a48","65ab5b0559ed95e63d138a48_20240207","","","","5","9","1210",""
"2688","0","html-button-response","105","801564","0.0-105.0","65ab5b0559ed95e63d138a48","65ab5b0559ed95e63d138a48_20240207","","","","5","1","931",""
"2528","0","html-button-response","106","804595","0.0-106.0","65ab5b0559ed95e63d138a48","65ab5b0559ed95e63d138a48_20240207","","","","5","1","1052",""
"2777","0","html-button-response","107","807882","0.0-107.0","65ab5b0559ed95e63d138a48","65ab5b0559ed95e63d138a48_20240207","","","","5","5","1094",""
"4369","0","html-button-response","108","812763","0.0-108.0","65ab5b0559ed95e63d138a48","65ab5b0559ed95e63d138a48_20240207","","","","9","5","564",""
"3886","0","html-button-response","109","817165","0.0-109.0","65ab5b0559ed95e63d138a48","65ab5b0559ed95e63d138a48_20240207","","","","5","1","347",""
"3300","0","html-button-response","110","820976","0.0-110.0","65ab5b0559ed95e63d138a48","65ab5b0559ed95e63d138a48_20240207","","","","9","5","357",""
"2323","0","html-button-response","111","823806","0.0-111.0","65ab5b0559ed95e63d138a48","65ab5b0559ed95e63d138a48_20240207","","","","9","5","82",""
"3674","0","html-button-response","112","827991","0.0-112.0","65ab5b0559ed95e63d138a48","65ab5b0559ed95e63d138a48_20240207","","","","1","1","1716",""
"3020","0","html-button-response","113","831520","0.0-113.0","65ab5b0559ed95e63d138a48","65ab5b0559ed95e63d138a48_20240207","","","","5","9","1722",""
"2233","0","html-button-response","114","834259","0.0-114.0","65ab5b0559ed95e63d138a48","65ab5b0559ed95e63d138a48_20240207","","","","5","1","778",""
"4293","0","html-button-response","115","839063","0.0-115.0","65ab5b0559ed95e63d138a48","65ab5b0559ed95e63d138a48_20240207","","","","9","5","420",""
"2666","0","html-button-response","116","842240","0.0-116.0","65ab5b0559ed95e63d138a48","65ab5b0559ed95e63d138a48_20240207","","","","5","1","839",""
"2993","0","html-button-response","117","845742","0.0-117.0","65ab5b0559ed95e63d138a48","65ab5b0559ed95e63d138a48_20240207","","","","5","1","440",""
"5611","0","html-button-response","118","851862","0.0-118.0","65ab5b0559ed95e63d138a48","65ab5b0559ed95e63d138a48_20240207","","","","5","1","1962",""
"2777","0","html-button-response","119","855145","0.0-119.0","65ab5b0559ed95e63d138a48","65ab5b0559ed95e63d138a48_20240207","","","","5","5","2168",""
"2420","0","html-button-response","120","858077","0.0-120.0","65ab5b0559ed95e63d138a48","65ab5b0559ed95e63d138a48_20240207","","","","5","1","559",""
"2324","0","html-button-response","121","860912","0.0-121.0","65ab5b0559ed95e63d138a48","65ab5b0559ed95e63d138a48_20240207","","","","5","5","991",""
"2550","0","html-button-response","122","863967","0.0-122.0","65ab5b0559ed95e63d138a48","65ab5b0559ed95e63d138a48_20240207","","","","5","5","1080",""
"2564","0","html-button-response","123","867045","0.0-123.0","65ab5b0559ed95e63d138a48","65ab5b0559ed95e63d138a48_20240207","","","","5","1","318",""
"3518","0","html-button-response","124","871071","0.0-124.0","65ab5b0559ed95e63d138a48","65ab5b0559ed95e63d138a48_20240207","","","","9","5","133",""
"5008","0","html-button-response","125","876595","0.0-125.0","65ab5b0559ed95e63d138a48","65ab5b0559ed95e63d138a48_20240207","","","","9","1","691",""
"2969","0","html-button-response","126","880070","0.0-126.0","65ab5b0559ed95e63d138a48","65ab5b0559ed95e63d138a48_20240207","","","","5","5","1308",""
"3354","0","html-button-response","127","883935","0.0-127.0","65ab5b0559ed95e63d138a48","65ab5b0559ed95e63d138a48_20240207","","","","9","5","44",""
"2472","0","html-button-response","128","886924","0.0-128.0","65ab5b0559ed95e63d138a48","65ab5b0559ed95e63d138a48_20240207","","","","5","5","956",""
"2215","0","html-button-response","129","889652","0.0-129.0","65ab5b0559ed95e63d138a48","65ab5b0559ed95e63d138a48_20240207","","","","1","5","906",""
"2383","0","html-button-response","130","892543","0.0-130.0","65ab5b0559ed95e63d138a48","65ab5b0559ed95e63d138a48_20240207","","","","5","1","335",""
"2199","0","html-button-response","131","895257","0.0-131.0","65ab5b0559ed95e63d138a48","65ab5b0559ed95e63d138a48_20240207","","","","5","1","1725",""
"2397","0","html-button-response","132","898164","0.0-132.0","65ab5b0559ed95e63d138a48","65ab5b0559ed95e63d138a48_20240207","","","","5","1","763",""
"2176","0","html-button-response","133","900849","0.0-133.0","65ab5b0559ed95e63d138a48","65ab5b0559ed95e63d138a48_20240207","","","","5","1","1961",""
"2246","0","html-button-response","134","903602","0.0-134.0","65ab5b0559ed95e63d138a48","65ab5b0559ed95e63d138a48_20240207","","","","5","1","865",""
"2248","0","html-button-response","135","906356","0.0-135.0","65ab5b0559ed95e63d138a48","65ab5b0559ed95e63d138a48_20240207","","","","5","1","309",""
"3355","0","html-button-response","136","910221","0.0-136.0","65ab5b0559ed95e63d138a48","65ab5b0559ed95e63d138a48_20240207","","","","5","1","1365",""
"2196","0","html-button-response","137","912923","0.0-137.0","65ab5b0559ed95e63d138a48","65ab5b0559ed95e63d138a48_20240207","","","","5","9","1705",""
"2118","0","html-button-response","138","915550","0.0-138.0","65ab5b0559ed95e63d138a48","65ab5b0559ed95e63d138a48_20240207","","","","5","5","1328",""
"2591","0","html-button-response","139","918649","0.0-139.0","65ab5b0559ed95e63d138a48","65ab5b0559ed95e63d138a48_20240207","","","","5","5","1125",""
"2320","0","html-button-response","140","921474","0.0-140.0","65ab5b0559ed95e63d138a48","65ab5b0559ed95e63d138a48_20240207","","","","5","5","1668",""
"2325","0","html-button-response","141","924308","0.0-141.0","65ab5b0559ed95e63d138a48","65ab5b0559ed95e63d138a48_20240207","","","","5","1","1231",""
"2403","0","html-button-response","142","927218","0.0-142.0","65ab5b0559ed95e63d138a48","65ab5b0559ed95e63d138a48_20240207","","","","5","5","2181",""
"5687","0","html-button-response","143","933412","0.0-143.0","65ab5b0559ed95e63d138a48","65ab5b0559ed95e63d138a48_20240207","","","","5","5","919",""
"5859","0","html-button-response","144","939779","0.0-144.0","65ab5b0559ed95e63d138a48","65ab5b0559ed95e63d138a48_20240207","","","","5","1","99",""
"2727","0","html-button-response","145","943022","0.0-145.0","65ab5b0559ed95e63d138a48","65ab5b0559ed95e63d138a48_20240207","","","","1","5","1100",""
"2883","0","html-button-response","146","946419","0.0-146.0","65ab5b0559ed95e63d138a48","65ab5b0559ed95e63d138a48_20240207","","","","1","5","1116",""
"3575","0","html-button-response","147","950498","0.0-147.0","65ab5b0559ed95e63d138a48","65ab5b0559ed95e63d138a48_20240207","","","","9","5","66",""
"2210","0","html-button-response","148","953220","0.0-148.0","65ab5b0559ed95e63d138a48","65ab5b0559ed95e63d138a48_20240207","","","","5","1","234",""
"2143","0","html-button-response","149","955872","0.0-149.0","65ab5b0559ed95e63d138a48","65ab5b0559ed95e63d138a48_20240207","","","","5","9","1720",""
"2931","0","html-button-response","150","959314","0.0-150.0","65ab5b0559ed95e63d138a48","65ab5b0559ed95e63d138a48_20240207","","","","5","1","546",""
"10316","0","html-button-response","151","970139","0.0-151.0","65ab5b0559ed95e63d138a48","65ab5b0559ed95e63d138a48_20240207","","","","5","1","792",""
"2883","0","html-button-response","152","973532","0.0-152.0","65ab5b0559ed95e63d138a48","65ab5b0559ed95e63d138a48_20240207","","","","5","1","1430",""
"4448","0","html-button-response","153","978489","0.0-153.0","65ab5b0559ed95e63d138a48","65ab5b0559ed95e63d138a48_20240207","","","","9","5","277",""
"3283","0","html-button-response","154","982284","0.0-154.0","65ab5b0559ed95e63d138a48","65ab5b0559ed95e63d138a48_20240207","","","","9","5","55",""
"4325","0","html-button-response","155","987117","0.0-155.0","65ab5b0559ed95e63d138a48","65ab5b0559ed95e63d138a48_20240207","","","","1","1","676",""
"3091","0","html-button-response","156","990725","0.0-156.0","65ab5b0559ed95e63d138a48","65ab5b0559ed95e63d138a48_20240207","","","","1","5","1180",""
"3593","0","html-button-response","157","994826","0.0-157.0","65ab5b0559ed95e63d138a48","65ab5b0559ed95e63d138a48_20240207","","","","9","5","577",""
"3071","0","html-button-response","158","998399","0.0-158.0","65ab5b0559ed95e63d138a48","65ab5b0559ed95e63d138a48_20240207","","","","5","5","1671",""
"2440","0","html-button-response","159","1001344","0.0-159.0","65ab5b0559ed95e63d138a48","65ab5b0559ed95e63d138a48_20240207","","","","9","5","172",""
"2244","0","html-button-response","160","1004102","0.0-160.0","65ab5b0559ed95e63d138a48","65ab5b0559ed95e63d138a48_20240207","","","","9","5","384",""
"7784","0","html-button-response","161","1012392","0.0-161.0","65ab5b0559ed95e63d138a48","65ab5b0559ed95e63d138a48_20240207","","","","9","1","904",""
"2092","0","html-button-response","162","1014993","0.0-162.0","65ab5b0559ed95e63d138a48","65ab5b0559ed95e63d138a48_20240207","","","","5","5","1502",""
"2596","0","html-button-response","163","1018092","0.0-163.0","65ab5b0559ed95e63d138a48","65ab5b0559ed95e63d138a48_20240207","","","","9","5","758",""
"2354","0","html-button-response","164","1020952","0.0-164.0","65ab5b0559ed95e63d138a48","65ab5b0559ed95e63d138a48_20240207","","","","5","9","1017",""
"4502","0","html-button-response","165","1025972","0.0-165.0","65ab5b0559ed95e63d138a48","65ab5b0559ed95e63d138a48_20240207","","","","9","1","1542",""
"2431","0","html-button-response","166","1028908","0.0-166.0","65ab5b0559ed95e63d138a48","65ab5b0559ed95e63d138a48_20240207","","","","5","9","1548",""
"3401","0","html-button-response","167","1032813","0.0-167.0","65ab5b0559ed95e63d138a48","65ab5b0559ed95e63d138a48_20240207","","","","9","5","560",""
"2821","0","html-button-response","168","1036145","0.0-168.0","65ab5b0559ed95e63d138a48","65ab5b0559ed95e63d138a48_20240207","","","","5","1","1480",""
"3587","0","html-button-response","169","1040236","0.0-169.0","65ab5b0559ed95e63d138a48","65ab5b0559ed95e63d138a48_20240207","","","","1","5","814",""
"3192","0","html-button-response","170","1043946","0.0-170.0","65ab5b0559ed95e63d138a48","65ab5b0559ed95e63d138a48_20240207","","","","9","5","458",""
"2245","0","html-button-response","171","1046706","0.0-171.0","65ab5b0559ed95e63d138a48","65ab5b0559ed95e63d138a48_20240207","","","","5","1","2036",""
"2100","0","html-button-response","172","1049311","0.0-172.0","65ab5b0559ed95e63d138a48","65ab5b0559ed95e63d138a48_20240207","","","","5","1","713",""
"2639","0","html-button-response","173","1052452","0.0-173.0","65ab5b0559ed95e63d138a48","65ab5b0559ed95e63d138a48_20240207","","","","1","5","1113",""
"2555","0","html-button-response","174","1055521","0.0-174.0","65ab5b0559ed95e63d138a48","65ab5b0559ed95e63d138a48_20240207","","","","5","5","820",""
"3793","0","html-button-response","175","1059825","0.0-175.0","65ab5b0559ed95e63d138a48","65ab5b0559ed95e63d138a48_20240207","","","","9","5","613",""
"3974","0","html-button-response","176","1064312","0.0-176.0","65ab5b0559ed95e63d138a48","65ab5b0559ed95e63d138a48_20240207","","","","9","1","1750",""
"6045","0","html-button-response","177","1070861","0.0-177.0","65ab5b0559ed95e63d138a48","65ab5b0559ed95e63d138a48_20240207","","","","5","1","1144",""
"3192","0","html-button-response","178","1074561","0.0-178.0","65ab5b0559ed95e63d138a48","65ab5b0559ed95e63d138a48_20240207","","","","5","5","1138",""
"2336","0","html-button-response","179","1077408","0.0-179.0","65ab5b0559ed95e63d138a48","65ab5b0559ed95e63d138a48_20240207","","","","5","1","400",""
"9461","0","html-button-response","180","1087377","0.0-180.0","65ab5b0559ed95e63d138a48","65ab5b0559ed95e63d138a48_20240207","","","","5","1","1033",""
"2207","0","html-button-response","181","1090101","0.0-181.0","65ab5b0559ed95e63d138a48","65ab5b0559ed95e63d138a48_20240207","","","","5","9","1353",""
"2902","0","html-button-response","182","1093512","0.0-182.0","65ab5b0559ed95e63d138a48","65ab5b0559ed95e63d138a48_20240207","","","","5","1","1118",""
"3124","0","html-button-response","183","1097143","0.0-183.0","65ab5b0559ed95e63d138a48","65ab5b0559ed95e63d138a48_20240207","","","","5","1","723",""
"2253","0","html-button-response","184","1099908","0.0-184.0","65ab5b0559ed95e63d138a48","65ab5b0559ed95e63d138a48_20240207","","","","5","5","824",""
"2891","0","html-button-response","185","1103302","0.0-185.0","65ab5b0559ed95e63d138a48","65ab5b0559ed95e63d138a48_20240207","","","","5","1","930",""
"1990","0","html-button-response","186","1105802","0.0-186.0","65ab5b0559ed95e63d138a48","65ab5b0559ed95e63d138a48_20240207","","","","5","1","502",""
"2125","0","html-button-response","187","1108443","0.0-187.0","65ab5b0559ed95e63d138a48","65ab5b0559ed95e63d138a48_20240207","","","","5","5","1841",""
"2753","0","html-button-response","188","1111702","0.0-188.0","65ab5b0559ed95e63d138a48","65ab5b0559ed95e63d138a48_20240207","","","","5","1","232",""
"1983","0","html-button-response","189","1114195","0.0-189.0","65ab5b0559ed95e63d138a48","65ab5b0559ed95e63d138a48_20240207","","","","5","5","1451",""
"2633","0","html-button-response","190","1117334","0.0-190.0","65ab5b0559ed95e63d138a48","65ab5b0559ed95e63d138a48_20240207","","","","5","1","213",""
"2194","0","html-button-response","191","1120043","0.0-191.0","65ab5b0559ed95e63d138a48","65ab5b0559ed95e63d138a48_20240207","","","","5","9","1524",""
"2407","0","html-button-response","192","1122961","0.0-192.0","65ab5b0559ed95e63d138a48","65ab5b0559ed95e63d138a48_20240207","","","","5","1","35",""
"2797","0","html-button-response","193","1126270","0.0-193.0","65ab5b0559ed95e63d138a48","65ab5b0559ed95e63d138a48_20240207","","","","1","5","1427",""
"2665","0","html-button-response","194","1129443","0.0-194.0","65ab5b0559ed95e63d138a48","65ab5b0559ed95e63d138a48_20240207","","","","5","1","592",""
"3776","0","html-button-response","195","1133727","0.0-195.0","65ab5b0559ed95e63d138a48","65ab5b0559ed95e63d138a48_20240207","","","","5","5","1295",""
"3385","0","html-button-response","196","1137624","0.0-196.0","65ab5b0559ed95e63d138a48","65ab5b0559ed95e63d138a48_20240207","","","","1","5","1676",""
"12016","0","html-button-response","197","1150153","0.0-197.0","65ab5b0559ed95e63d138a48","65ab5b0559ed95e63d138a48_20240207","","","","9","5","1778",""
"4312","0","html-button-response","198","1154973","0.0-198.0","65ab5b0559ed95e63d138a48","65ab5b0559ed95e63d138a48_20240207","","","","5","1","86",""
"2976","0","html-button-response","199","1158463","0.0-199.0","65ab5b0559ed95e63d138a48","65ab5b0559ed95e63d138a48_20240207","","","","9","5","890",""
"3238","0","html-button-response","200","1162214","0.0-200.0","65ab5b0559ed95e63d138a48","65ab5b0559ed95e63d138a48_20240207","","","","1","5","1128",""
"3293","0","html-button-response","201","1166018","0.0-201.0","65ab5b0559ed95e63d138a48","65ab5b0559ed95e63d138a48_20240207","","","","9","1","513",""
"4640","0","html-button-response","202","1171168","0.0-202.0","65ab5b0559ed95e63d138a48","65ab5b0559ed95e63d138a48_20240207","","","","9","1","148",""
"3080","0","html-button-response","203","1174754","0.0-203.0","65ab5b0559ed95e63d138a48","65ab5b0559ed95e63d138a48_20240207","","","","1","5","2182",""
"7220","0","html-button-response","204","1182483","0.0-204.0","65ab5b0559ed95e63d138a48","65ab5b0559ed95e63d138a48_20240207","","","","9","9","1748",""
"7214","0","html-button-response","205","1190202","0.0-205.0","65ab5b0559ed95e63d138a48","65ab5b0559ed95e63d138a48_20240207","","","","1","5","751",""
"2863","0","html-button-response","206","1193570","0.0-206.0","65ab5b0559ed95e63d138a48","65ab5b0559ed95e63d138a48_20240207","","","","5","5","2005",""
"2752","0","html-button-response","207","1196829","0.0-207.0","65ab5b0559ed95e63d138a48","65ab5b0559ed95e63d138a48_20240207","","","","5","1","519",""
"3712","0","html-button-response","208","1201050","0.0-208.0","65ab5b0559ed95e63d138a48","65ab5b0559ed95e63d138a48_20240207","","","","5","5","1822",""
"3038","0","html-button-response","209","1204597","0.0-209.0","65ab5b0559ed95e63d138a48","65ab5b0559ed95e63d138a48_20240207","","","","5","5","1811",""
"3107","0","html-button-response","210","1208211","0.0-210.0","65ab5b0559ed95e63d138a48","65ab5b0559ed95e63d138a48_20240207","","","","5","1","1869",""
"6145","0","html-button-response","211","1214873","0.0-211.0","65ab5b0559ed95e63d138a48","65ab5b0559ed95e63d138a48_20240207","","","","9","5","250",""
"3787","0","html-button-response","212","1219166","0.0-212.0","65ab5b0559ed95e63d138a48","65ab5b0559ed95e63d138a48_20240207","","","","9","1","387",""
"4095","0","html-button-response","213","1223773","0.0-213.0","65ab5b0559ed95e63d138a48","65ab5b0559ed95e63d138a48_20240207","","","","9","5","30",""
"2561","0","html-button-response","214","1226840","0.0-214.0","65ab5b0559ed95e63d138a48","65ab5b0559ed95e63d138a48_20240207","","","","5","5","1314",""
"2263","0","html-button-response","215","1229620","0.0-215.0","65ab5b0559ed95e63d138a48","65ab5b0559ed95e63d138a48_20240207","","","","5","5","1134",""
"2092","0","html-button-response","216","1232223","0.0-216.0","65ab5b0559ed95e63d138a48","65ab5b0559ed95e63d138a48_20240207","","","","1","5","1647",""
"2447","0","html-button-response","217","1235177","0.0-217.0","65ab5b0559ed95e63d138a48","65ab5b0559ed95e63d138a48_20240207","","","","5","1","832",""
"2543","0","html-button-response","218","1238228","0.0-218.0","65ab5b0559ed95e63d138a48","65ab5b0559ed95e63d138a48_20240207","","","","5","9","1198",""
"2593","0","html-button-response","219","1241338","0.0-219.0","65ab5b0559ed95e63d138a48","65ab5b0559ed95e63d138a48_20240207","","","","5","1","1960",""
"2532","0","html-button-response","220","1244380","0.0-220.0","65ab5b0559ed95e63d138a48","65ab5b0559ed95e63d138a48_20240207","","","","5","5","2179",""
"4577","0","html-button-response","221","1249462","0.0-221.0","65ab5b0559ed95e63d138a48","65ab5b0559ed95e63d138a48_20240207","","","","9","5","407",""
"3304","0","html-button-response","222","1253273","0.0-222.0","65ab5b0559ed95e63d138a48","65ab5b0559ed95e63d138a48_20240207","","","","9","1","303",""
"3164","0","html-button-response","223","1256946","0.0-223.0","65ab5b0559ed95e63d138a48","65ab5b0559ed95e63d138a48_20240207","","","","9","1","70",""
"2774","0","html-button-response","224","1260232","0.0-224.0","65ab5b0559ed95e63d138a48","65ab5b0559ed95e63d138a48_20240207","","","","9","1","111",""
"2768","0","html-button-response","225","1263511","0.0-225.0","65ab5b0559ed95e63d138a48","65ab5b0559ed95e63d138a48_20240207","","","Thank you. You have reached the end. 
                       <br>Click the button below to reveal your compensation.
                        <br><br>","","","","2172,983,556,548,1589,926,1164,114,1780,84,616,651,978,967,340,1107,834,520,484,270,1879,1605,1856,405,2011,1866,77,944,707,790,503,950,1363,1020,985,408,508,1044,1957,734,779,1266,1583,966,1833,1850,662,123,229,685,695,1489,948,1390,2164,658,306,2009,803,260,1504,323,245,1695,1968,78,267,1790,101,1615,1058,1433,479,1614,59,1761,1093,187,1047,1453,1992,1985,1537,877,429,2054,1495,230,626,157,1756,501,879,2112,1152,645,231,793,1119,1210,931,1052,1094,564,347,357,82,1716,1722,778,420,839,440,1962,2168,559,991,1080,318,133,691,1308,44,956,906,335,1725,763,1961,865,309,1365,1705,1328,1125,1668,1231,2181,919,99,1100,1116,66,234,1720,546,792,1430,277,55,676,1180,577,1671,172,384,904,1502,758,1017,1542,1548,560,1480,814,458,2036,713,1113,820,613,1750,1144,1138,400,1033,1353,1118,723,824,930,502,1841,232,1451,213,1524,35,1427,592,1295,1676,1778,86,890,1128,513,148,2182,1748,751,2005,519,1822,1811,1869,250,387,30,1314,1134,1647,832,1198,1960,2179,407,303,70,111"
