"rt","response","trial_type","trial_index","time_elapsed","internal_node_id","part_ID","ID_DATE","screen_id","understand_correct","stimulus","arousal","valence","img_id","tested_trial_idx"
"4858","0","html-button-response","0","4858","0.0-0.0","631c790a9061cd8137fd215b","631c790a9061cd8137fd215b_20240207","","","","","","",""
"4172","[object Object]","survey-html-form","1","9537","0.0-1.0","631c790a9061cd8137fd215b","631c790a9061cd8137fd215b_20240207","prolific_id_page","","","","","",""
"27395","0","html-button-response","2","36934","0.0-2.0","631c790a9061cd8137fd215b","631c790a9061cd8137fd215b_20240207","","","","","","",""
"9669","0","html-button-response","3","47117","0.0-3.0-0.0","631c790a9061cd8137fd215b","631c790a9061cd8137fd215b_20240207","","false","","","","",""
"26684","0","html-button-response","4","76921","0.0-3.1-0.1","631c790a9061cd8137fd215b","631c790a9061cd8137fd215b_20240207","","true","","","","",""
"1111","0","html-button-response","5","78544","0.0-4.0","631c790a9061cd8137fd215b","631c790a9061cd8137fd215b_20240207","","","
<div>
Great! You will now go on to rate the faces.
<br><br>
</div>
","","","",""
"18895","0","html-button-response","6","97946","0.0-5.0","631c790a9061cd8137fd215b","631c790a9061cd8137fd215b_20240207","","","","5","2","1624",""
"6523","0","html-button-response","7","104980","0.0-6.0","631c790a9061cd8137fd215b","631c790a9061cd8137fd215b_20240207","","","","7","5","158",""
"5218","0","html-button-response","8","110701","0.0-7.0","631c790a9061cd8137fd215b","631c790a9061cd8137fd215b_20240207","","","","5","5","1297",""
"9268","0","html-button-response","9","120482","0.0-8.0","631c790a9061cd8137fd215b","631c790a9061cd8137fd215b_20240207","","","","5","7","1587",""
"13816","0","html-button-response","10","134807","0.0-9.0","631c790a9061cd8137fd215b","631c790a9061cd8137fd215b_20240207","","","","7","4","914",""
"10411","0","html-button-response","11","145720","0.0-10.0","631c790a9061cd8137fd215b","631c790a9061cd8137fd215b_20240207","","","","7","1","1047",""
"4379","0","html-button-response","12","150609","0.0-11.0","631c790a9061cd8137fd215b","631c790a9061cd8137fd215b_20240207","","","","5","5","642",""
"4156","0","html-button-response","13","155272","0.0-12.0","631c790a9061cd8137fd215b","631c790a9061cd8137fd215b_20240207","","","","5","3","610",""
"3459","0","html-button-response","14","159245","0.0-13.0","631c790a9061cd8137fd215b","631c790a9061cd8137fd215b_20240207","","","","7","3","68",""
"51531","0","html-button-response","15","211286","0.0-14.0","631c790a9061cd8137fd215b","631c790a9061cd8137fd215b_20240207","","","","8","4","199",""
"3714","0","html-button-response","16","215509","0.0-15.0","631c790a9061cd8137fd215b","631c790a9061cd8137fd215b_20240207","","","","5","6","1436",""
"3207","0","html-button-response","17","219225","0.0-16.0","631c790a9061cd8137fd215b","631c790a9061cd8137fd215b_20240207","","","","5","3","597",""
"4034","0","html-button-response","18","223767","0.0-17.0","631c790a9061cd8137fd215b","631c790a9061cd8137fd215b_20240207","","","","7","4","123",""
"3197","0","html-button-response","19","227466","0.0-18.0","631c790a9061cd8137fd215b","631c790a9061cd8137fd215b_20240207","","","","5","5","2025",""
"2717","0","html-button-response","20","230695","0.0-19.0","631c790a9061cd8137fd215b","631c790a9061cd8137fd215b_20240207","","","","5","5","1799",""
"3827","0","html-button-response","21","235028","0.0-20.0","631c790a9061cd8137fd215b","631c790a9061cd8137fd215b_20240207","","","","5","4","1945",""
"4976","0","html-button-response","22","240515","0.0-21.0","631c790a9061cd8137fd215b","631c790a9061cd8137fd215b_20240207","","","","6","5","139",""
"3490","0","html-button-response","23","244516","0.0-22.0","631c790a9061cd8137fd215b","631c790a9061cd8137fd215b_20240207","","","","6","5","502",""
"3551","0","html-button-response","24","248570","0.0-23.0","631c790a9061cd8137fd215b","631c790a9061cd8137fd215b_20240207","","","","7","7","1891",""
"4674","0","html-button-response","25","253746","0.0-24.0","631c790a9061cd8137fd215b","631c790a9061cd8137fd215b_20240207","","","","4","4","2199",""
"3772","0","html-button-response","26","258030","0.0-25.0","631c790a9061cd8137fd215b","631c790a9061cd8137fd215b_20240207","","","","5","5","1337",""
"6851","0","html-button-response","27","265395","0.0-26.0","631c790a9061cd8137fd215b","631c790a9061cd8137fd215b_20240207","","","","8","5","781",""
"3312","0","html-button-response","28","269212","0.0-27.0","631c790a9061cd8137fd215b","631c790a9061cd8137fd215b_20240207","","","","5","6","1446",""
"2908","0","html-button-response","29","272626","0.0-28.0","631c790a9061cd8137fd215b","631c790a9061cd8137fd215b_20240207","","","","3","3","1610",""
"3038","0","html-button-response","30","276170","0.0-29.0","631c790a9061cd8137fd215b","631c790a9061cd8137fd215b_20240207","","","","8","5","770",""
"4396","0","html-button-response","31","281078","0.0-30.0","631c790a9061cd8137fd215b","631c790a9061cd8137fd215b_20240207","","","","7","8","1705",""
"4678","0","html-button-response","32","286259","0.0-31.0","631c790a9061cd8137fd215b","631c790a9061cd8137fd215b_20240207","","","","8","3","157",""
"5392","0","html-button-response","33","292161","0.0-32.0","631c790a9061cd8137fd215b","631c790a9061cd8137fd215b_20240207","","","","7","4","318",""
"3283","0","html-button-response","34","295957","0.0-33.0","631c790a9061cd8137fd215b","631c790a9061cd8137fd215b_20240207","","","","7","4","484",""
"2827","0","html-button-response","35","299292","0.0-34.0","631c790a9061cd8137fd215b","631c790a9061cd8137fd215b_20240207","","","","7","4","604",""
"5731","0","html-button-response","36","305534","0.0-35.0","631c790a9061cd8137fd215b","631c790a9061cd8137fd215b_20240207","","","","4","3","2184",""
"8658","0","html-button-response","37","314706","0.0-36.0","631c790a9061cd8137fd215b","631c790a9061cd8137fd215b_20240207","","","","9","1","1192",""
"3382","0","html-button-response","38","318596","0.0-37.0","631c790a9061cd8137fd215b","631c790a9061cd8137fd215b_20240207","","","","7","5","113",""
"4280","0","html-button-response","39","323378","0.0-38.0","631c790a9061cd8137fd215b","631c790a9061cd8137fd215b_20240207","","","","8","4","419",""
"5069","0","html-button-response","40","328960","0.0-39.0","631c790a9061cd8137fd215b","631c790a9061cd8137fd215b_20240207","","","","6","7","1081",""
"3360","0","html-button-response","41","332833","0.0-40.0","631c790a9061cd8137fd215b","631c790a9061cd8137fd215b_20240207","","","","9","1","857",""
"3357","0","html-button-response","42","336698","0.0-41.0","631c790a9061cd8137fd215b","631c790a9061cd8137fd215b_20240207","","","","8","2","208",""
"5225","0","html-button-response","43","342439","0.0-42.0","631c790a9061cd8137fd215b","631c790a9061cd8137fd215b_20240207","","","","8","3","36",""
"2429","0","html-button-response","44","345370","0.0-43.0","631c790a9061cd8137fd215b","631c790a9061cd8137fd215b_20240207","","","","5","5","1670",""
"2998","0","html-button-response","45","348880","0.0-44.0","631c790a9061cd8137fd215b","631c790a9061cd8137fd215b_20240207","","","","8","4","734",""
"2431","0","html-button-response","46","351818","0.0-45.0","631c790a9061cd8137fd215b","631c790a9061cd8137fd215b_20240207","","","","5","5","1126",""
"5287","0","html-button-response","47","357620","0.0-46.0","631c790a9061cd8137fd215b","631c790a9061cd8137fd215b_20240207","","","","5","4","1326",""
"4682","0","html-button-response","48","362806","0.0-47.0","631c790a9061cd8137fd215b","631c790a9061cd8137fd215b_20240207","","","","9","6","511",""
"3329","0","html-button-response","49","366647","0.0-48.0","631c790a9061cd8137fd215b","631c790a9061cd8137fd215b_20240207","","","","5","4","960",""
"6312","0","html-button-response","50","373476","0.0-49.0","631c790a9061cd8137fd215b","631c790a9061cd8137fd215b_20240207","","","","4","4","974",""
"2536","0","html-button-response","51","376516","0.0-50.0","631c790a9061cd8137fd215b","631c790a9061cd8137fd215b_20240207","","","","5","5","1996",""
"3162","0","html-button-response","52","380183","0.0-51.0","631c790a9061cd8137fd215b","631c790a9061cd8137fd215b_20240207","","","","5","5","1487",""
"2977","0","html-button-response","53","383669","0.0-52.0","631c790a9061cd8137fd215b","631c790a9061cd8137fd215b_20240207","","","","6","6","1602",""
"6575","0","html-button-response","54","390752","0.0-53.0","631c790a9061cd8137fd215b","631c790a9061cd8137fd215b_20240207","","","","4","4","490",""
"7924","0","html-button-response","55","399183","0.0-54.0","631c790a9061cd8137fd215b","631c790a9061cd8137fd215b_20240207","","","","5","5","1459",""
"4308","0","html-button-response","56","403995","0.0-55.0","631c790a9061cd8137fd215b","631c790a9061cd8137fd215b_20240207","","","","6","3","1637",""
"2336","0","html-button-response","57","406846","0.0-56.0","631c790a9061cd8137fd215b","631c790a9061cd8137fd215b_20240207","","","","6","3","1283",""
"3852","0","html-button-response","58","411213","0.0-57.0","631c790a9061cd8137fd215b","631c790a9061cd8137fd215b_20240207","","","","7","8","1863",""
"4697","0","html-button-response","59","416418","0.0-58.0","631c790a9061cd8137fd215b","631c790a9061cd8137fd215b_20240207","","","","9","6","538",""
"4012","0","html-button-response","60","420942","0.0-59.0","631c790a9061cd8137fd215b","631c790a9061cd8137fd215b_20240207","","","","6","5","824",""
"5726","0","html-button-response","61","427181","0.0-60.0","631c790a9061cd8137fd215b","631c790a9061cd8137fd215b_20240207","","","","9","5","265",""
"6436","0","html-button-response","62","434126","0.0-61.0","631c790a9061cd8137fd215b","631c790a9061cd8137fd215b_20240207","","","","8","1","1882",""
"7442","0","html-button-response","63","442071","0.0-62.0","631c790a9061cd8137fd215b","631c790a9061cd8137fd215b_20240207","","","","4","7","2109",""
"3367","0","html-button-response","64","445942","0.0-63.0","631c790a9061cd8137fd215b","631c790a9061cd8137fd215b_20240207","","","","7","7","1718",""
"4374","0","html-button-response","65","450821","0.0-64.0","631c790a9061cd8137fd215b","631c790a9061cd8137fd215b_20240207","","","","7","2","1742",""
"5020","0","html-button-response","66","456349","0.0-65.0","631c790a9061cd8137fd215b","631c790a9061cd8137fd215b_20240207","","","","3","2","320",""
"6810","0","html-button-response","67","463670","0.0-66.0","631c790a9061cd8137fd215b","631c790a9061cd8137fd215b_20240207","","","","6","4","1593",""
"2796","0","html-button-response","68","466976","0.0-67.0","631c790a9061cd8137fd215b","631c790a9061cd8137fd215b_20240207","","","","6","4","1664",""
"3164","0","html-button-response","69","470647","0.0-68.0","631c790a9061cd8137fd215b","631c790a9061cd8137fd215b_20240207","","","","6","4","1455",""
"2981","0","html-button-response","70","474139","0.0-69.0","631c790a9061cd8137fd215b","631c790a9061cd8137fd215b_20240207","","","","7","5","315",""
"3037","0","html-button-response","71","477680","0.0-70.0","631c790a9061cd8137fd215b","631c790a9061cd8137fd215b_20240207","","","","7","5","329",""
"4891","0","html-button-response","72","483076","0.0-71.0","631c790a9061cd8137fd215b","631c790a9061cd8137fd215b_20240207","","","","6","7","2033",""
"2866","0","html-button-response","73","486445","0.0-72.0","631c790a9061cd8137fd215b","631c790a9061cd8137fd215b_20240207","","","","5","5","2020",""
"36932","0","html-button-response","74","523890","0.0-73.0","631c790a9061cd8137fd215b","631c790a9061cd8137fd215b_20240207","","","","6","2","246",""
"3775","0","html-button-response","75","528172","0.0-74.0","631c790a9061cd8137fd215b","631c790a9061cd8137fd215b_20240207","","","","7","2","389",""
"4285","0","html-button-response","76","532966","0.0-75.0","631c790a9061cd8137fd215b","631c790a9061cd8137fd215b_20240207","","","","7","3","1936",""
"4998","0","html-button-response","77","538471","0.0-76.0","631c790a9061cd8137fd215b","631c790a9061cd8137fd215b_20240207","","","","6","8","1019",""
"3143","0","html-button-response","78","542115","0.0-77.0","631c790a9061cd8137fd215b","631c790a9061cd8137fd215b_20240207","","","","8","2","1534",""
"2579","0","html-button-response","79","545206","0.0-78.0","631c790a9061cd8137fd215b","631c790a9061cd8137fd215b_20240207","","","","8","5","289",""
"3864","0","html-button-response","80","549575","0.0-79.0","631c790a9061cd8137fd215b","631c790a9061cd8137fd215b_20240207","","","","6","7","1432",""
"4084","0","html-button-response","81","554171","0.0-80.0","631c790a9061cd8137fd215b","631c790a9061cd8137fd215b_20240207","","","","7","5","230",""
"5290","0","html-button-response","82","559970","0.0-81.0","631c790a9061cd8137fd215b","631c790a9061cd8137fd215b_20240207","","","","6","7","1059",""
"2847","0","html-button-response","83","563320","0.0-82.0","631c790a9061cd8137fd215b","631c790a9061cd8137fd215b_20240207","","","","8","5","107",""
"2139","0","html-button-response","84","565973","0.0-83.0","631c790a9061cd8137fd215b","631c790a9061cd8137fd215b_20240207","","","","8","5","98",""
"3474","0","html-button-response","85","569955","0.0-84.0","631c790a9061cd8137fd215b","631c790a9061cd8137fd215b_20240207","","","","7","7","2035",""
"3642","0","html-button-response","86","574122","0.0-85.0","631c790a9061cd8137fd215b","631c790a9061cd8137fd215b_20240207","","","","8","5","392",""
"2728","0","html-button-response","87","577358","0.0-86.0","631c790a9061cd8137fd215b","631c790a9061cd8137fd215b_20240207","","","","7","3","1456",""
"4181","0","html-button-response","88","582048","0.0-87.0","631c790a9061cd8137fd215b","631c790a9061cd8137fd215b_20240207","","","","8","8","2042",""
"2787","0","html-button-response","89","585337","0.0-88.0","631c790a9061cd8137fd215b","631c790a9061cd8137fd215b_20240207","","","","9","5","190",""
"2451","0","html-button-response","90","588303","0.0-89.0","631c790a9061cd8137fd215b","631c790a9061cd8137fd215b_20240207","","","","5","5","1147",""
"3832","0","html-button-response","91","592644","0.0-90.0","631c790a9061cd8137fd215b","631c790a9061cd8137fd215b_20240207","","","","9","1","351",""
"3892","0","html-button-response","92","597039","0.0-91.0","631c790a9061cd8137fd215b","631c790a9061cd8137fd215b_20240207","","","","6","5","966",""
"5383","0","html-button-response","93","602938","0.0-92.0","631c790a9061cd8137fd215b","631c790a9061cd8137fd215b_20240207","","","","4","4","777",""
"3906","0","html-button-response","94","607358","0.0-93.0","631c790a9061cd8137fd215b","631c790a9061cd8137fd215b_20240207","","","","8","5","42",""
"3335","0","html-button-response","95","611193","0.0-94.0","631c790a9061cd8137fd215b","631c790a9061cd8137fd215b_20240207","","","","7","3","1725",""
"3308","0","html-button-response","96","615004","0.0-95.0","631c790a9061cd8137fd215b","631c790a9061cd8137fd215b_20240207","","","","8","4","541",""
"3207","0","html-button-response","97","618728","0.0-96.0","631c790a9061cd8137fd215b","631c790a9061cd8137fd215b_20240207","","","","7","7","1734",""
"3676","0","html-button-response","98","622907","0.0-97.0","631c790a9061cd8137fd215b","631c790a9061cd8137fd215b_20240207","","","","8","2","546",""
"4916","0","html-button-response","99","628338","0.0-98.0","631c790a9061cd8137fd215b","631c790a9061cd8137fd215b_20240207","","","","6","4","611",""
"2184","0","html-button-response","100","631031","0.0-99.0","631c790a9061cd8137fd215b","631c790a9061cd8137fd215b_20240207","","","","6","4","779",""
"4860","0","html-button-response","101","636404","0.0-100.0","631c790a9061cd8137fd215b","631c790a9061cd8137fd215b_20240207","","","","5","4","1352",""
"3121","0","html-button-response","102","640030","0.0-101.0","631c790a9061cd8137fd215b","631c790a9061cd8137fd215b_20240207","","","","6","5","317",""
"2932","0","html-button-response","103","643466","0.0-102.0","631c790a9061cd8137fd215b","631c790a9061cd8137fd215b_20240207","","","","6","5","638",""
"3046","0","html-button-response","104","647017","0.0-103.0","631c790a9061cd8137fd215b","631c790a9061cd8137fd215b_20240207","","","","5","6","1603",""
"2724","0","html-button-response","105","650256","0.0-104.0","631c790a9061cd8137fd215b","631c790a9061cd8137fd215b_20240207","","","","5","5","1336",""
"5607","0","html-button-response","106","656376","0.0-105.0","631c790a9061cd8137fd215b","631c790a9061cd8137fd215b_20240207","","","","7","5","34",""
"3435","0","html-button-response","107","660314","0.0-106.0","631c790a9061cd8137fd215b","631c790a9061cd8137fd215b_20240207","","","","5","4","1650",""
"4179","0","html-button-response","108","665007","0.0-107.0","631c790a9061cd8137fd215b","631c790a9061cd8137fd215b_20240207","","","","6","5","1093",""
"3928","0","html-button-response","109","669437","0.0-108.0","631c790a9061cd8137fd215b","631c790a9061cd8137fd215b_20240207","","","","8","5","352",""
"6115","0","html-button-response","110","676110","0.0-109.0","631c790a9061cd8137fd215b","631c790a9061cd8137fd215b_20240207","","","","4","4","801",""
"7491","0","html-button-response","111","684112","0.0-110.0","631c790a9061cd8137fd215b","631c790a9061cd8137fd215b_20240207","","","","7","7","1058",""
"5313","0","html-button-response","112","689939","0.0-111.0","631c790a9061cd8137fd215b","631c790a9061cd8137fd215b_20240207","","","","8","5","573",""
"3784","0","html-button-response","113","694239","0.0-112.0","631c790a9061cd8137fd215b","631c790a9061cd8137fd215b_20240207","","","","5","5","1321",""
"3830","0","html-button-response","114","698570","0.0-113.0","631c790a9061cd8137fd215b","631c790a9061cd8137fd215b_20240207","","","","5","5","1836",""
"3777","0","html-button-response","115","702869","0.0-114.0","631c790a9061cd8137fd215b","631c790a9061cd8137fd215b_20240207","","","","5","3","933",""
"2835","0","html-button-response","116","706211","0.0-115.0","631c790a9061cd8137fd215b","631c790a9061cd8137fd215b_20240207","","","","5","5","1618",""
"3627","0","html-button-response","117","710348","0.0-116.0","631c790a9061cd8137fd215b","631c790a9061cd8137fd215b_20240207","","","","5","5","983",""
"4379","0","html-button-response","118","715229","0.0-117.0","631c790a9061cd8137fd215b","631c790a9061cd8137fd215b_20240207","","","","8","5","391",""
"4613","0","html-button-response","119","720348","0.0-118.0","631c790a9061cd8137fd215b","631c790a9061cd8137fd215b_20240207","","","","6","6","1420",""
"3499","0","html-button-response","120","724351","0.0-119.0","631c790a9061cd8137fd215b","631c790a9061cd8137fd215b_20240207","","","","5","4","2171",""
"5747","0","html-button-response","121","730603","0.0-120.0","631c790a9061cd8137fd215b","631c790a9061cd8137fd215b_20240207","","","","8","5","550",""
"3579","0","html-button-response","122","734695","0.0-121.0","631c790a9061cd8137fd215b","631c790a9061cd8137fd215b_20240207","","","","5","3","1636",""
"3942","0","html-button-response","123","739147","0.0-122.0","631c790a9061cd8137fd215b","631c790a9061cd8137fd215b_20240207","","","","7","2","390",""
"6454","0","html-button-response","124","746114","0.0-123.0","631c790a9061cd8137fd215b","631c790a9061cd8137fd215b_20240207","","","","5","4","1931",""
"3505","0","html-button-response","125","750126","0.0-124.0","631c790a9061cd8137fd215b","631c790a9061cd8137fd215b_20240207","","","","8","5","561",""
"5254","0","html-button-response","126","755887","0.0-125.0","631c790a9061cd8137fd215b","631c790a9061cd8137fd215b_20240207","","","","4","3","295",""
"3335","0","html-button-response","127","759727","0.0-126.0","631c790a9061cd8137fd215b","631c790a9061cd8137fd215b_20240207","","","","6","5","1470",""
"3695","0","html-button-response","128","763937","0.0-127.0","631c790a9061cd8137fd215b","631c790a9061cd8137fd215b_20240207","","","","9","9","678",""
"5135","0","html-button-response","129","769582","0.0-128.0","631c790a9061cd8137fd215b","631c790a9061cd8137fd215b_20240207","","","","5","4","1621",""
"4199","0","html-button-response","130","774288","0.0-129.0","631c790a9061cd8137fd215b","631c790a9061cd8137fd215b_20240207","","","","5","5","1956",""
"2941","0","html-button-response","131","777738","0.0-130.0","631c790a9061cd8137fd215b","631c790a9061cd8137fd215b_20240207","","","","5","5","2114",""
"4745","0","html-button-response","132","782996","0.0-131.0","631c790a9061cd8137fd215b","631c790a9061cd8137fd215b_20240207","","","","6","3","91",""
"3634","0","html-button-response","133","787133","0.0-132.0","631c790a9061cd8137fd215b","631c790a9061cd8137fd215b_20240207","","","","8","5","432",""
"38032","0","html-button-response","134","825665","0.0-133.0","631c790a9061cd8137fd215b","631c790a9061cd8137fd215b_20240207","","","","5","5","1497",""
"5786","0","html-button-response","135","831957","0.0-134.0","631c790a9061cd8137fd215b","631c790a9061cd8137fd215b_20240207","","","","5","7","2107",""
"4105","0","html-button-response","136","836568","0.0-135.0","631c790a9061cd8137fd215b","631c790a9061cd8137fd215b_20240207","","","","4","5","1852",""
"5687","0","html-button-response","137","842769","0.0-136.0","631c790a9061cd8137fd215b","631c790a9061cd8137fd215b_20240207","","","","6","4","1004",""
"3155","0","html-button-response","138","846434","0.0-137.0","631c790a9061cd8137fd215b","631c790a9061cd8137fd215b_20240207","","","","8","5","85",""
"2574","0","html-button-response","139","849517","0.0-138.0","631c790a9061cd8137fd215b","631c790a9061cd8137fd215b_20240207","","","","5","5","1501",""
"3246","0","html-button-response","140","853271","0.0-139.0","631c790a9061cd8137fd215b","631c790a9061cd8137fd215b_20240207","","","","8","5","203",""
"5715","0","html-button-response","141","859498","0.0-140.0","631c790a9061cd8137fd215b","631c790a9061cd8137fd215b_20240207","","","","7","3","1781",""
"3554","0","html-button-response","142","863593","0.0-141.0","631c790a9061cd8137fd215b","631c790a9061cd8137fd215b_20240207","","","","5","5","2188",""
"3214","0","html-button-response","143","867322","0.0-142.0","631c790a9061cd8137fd215b","631c790a9061cd8137fd215b_20240207","","","","7","2","1064",""
"2940","0","html-button-response","144","870768","0.0-143.0","631c790a9061cd8137fd215b","631c790a9061cd8137fd215b_20240207","","","","6","3","1492",""
"4183","0","html-button-response","145","875455","0.0-144.0","631c790a9061cd8137fd215b","631c790a9061cd8137fd215b_20240207","","","","6","4","2129",""
"2611","0","html-button-response","146","878580","0.0-145.0","631c790a9061cd8137fd215b","631c790a9061cd8137fd215b_20240207","","","","5","5","1006",""
"2866","0","html-button-response","147","881952","0.0-146.0","631c790a9061cd8137fd215b","631c790a9061cd8137fd215b_20240207","","","","8","2","1217",""
"2390","0","html-button-response","148","884856","0.0-147.0","631c790a9061cd8137fd215b","631c790a9061cd8137fd215b_20240207","","","","8","5","189",""
"4082","0","html-button-response","149","889442","0.0-148.0","631c790a9061cd8137fd215b","631c790a9061cd8137fd215b_20240207","","","","9","5","548",""
"4122","0","html-button-response","150","894075","0.0-149.0","631c790a9061cd8137fd215b","631c790a9061cd8137fd215b_20240207","","","","5","2","1312",""
"3120","0","html-button-response","151","897698","0.0-150.0","631c790a9061cd8137fd215b","631c790a9061cd8137fd215b_20240207","","","","5","5","1450",""
"2727","0","html-button-response","152","900935","0.0-151.0","631c790a9061cd8137fd215b","631c790a9061cd8137fd215b_20240207","","","","5","3","1427",""
"2635","0","html-button-response","153","904082","0.0-152.0","631c790a9061cd8137fd215b","631c790a9061cd8137fd215b_20240207","","","","7","5","744",""
"2666","0","html-button-response","154","907254","0.0-153.0","631c790a9061cd8137fd215b","631c790a9061cd8137fd215b_20240207","","","","7","5","629",""
"3416","0","html-button-response","155","911173","0.0-154.0","631c790a9061cd8137fd215b","631c790a9061cd8137fd215b_20240207","","","","7","2","1570",""
"3183","0","html-button-response","156","914872","0.0-155.0","631c790a9061cd8137fd215b","631c790a9061cd8137fd215b_20240207","","","","5","6","1977",""
"3982","0","html-button-response","157","919367","0.0-156.0","631c790a9061cd8137fd215b","631c790a9061cd8137fd215b_20240207","","","","7","5","138",""
"2449","0","html-button-response","158","922320","0.0-157.0","631c790a9061cd8137fd215b","631c790a9061cd8137fd215b_20240207","","","","5","5","1109",""
"3765","0","html-button-response","159","926596","0.0-158.0","631c790a9061cd8137fd215b","631c790a9061cd8137fd215b_20240207","","","","7","4","310",""
"3729","0","html-button-response","160","930839","0.0-159.0","631c790a9061cd8137fd215b","631c790a9061cd8137fd215b_20240207","","","","8","5","253",""
"3768","0","html-button-response","161","935115","0.0-160.0","631c790a9061cd8137fd215b","631c790a9061cd8137fd215b_20240207","","","","6","2","1778",""
"3166","0","html-button-response","162","938787","0.0-161.0","631c790a9061cd8137fd215b","631c790a9061cd8137fd215b_20240207","","","","7","5","277",""
"2776","0","html-button-response","163","942070","0.0-162.0","631c790a9061cd8137fd215b","631c790a9061cd8137fd215b_20240207","","","","7","5","602",""
"5254","0","html-button-response","164","947831","0.0-163.0","631c790a9061cd8137fd215b","631c790a9061cd8137fd215b_20240207","","","","6","8","1263",""
"2959","0","html-button-response","165","951299","0.0-164.0","631c790a9061cd8137fd215b","631c790a9061cd8137fd215b_20240207","","","","6","2","1833",""
"3414","0","html-button-response","166","955220","0.0-165.0","631c790a9061cd8137fd215b","631c790a9061cd8137fd215b_20240207","","","","8","5","197",""
"2504","0","html-button-response","167","958226","0.0-166.0","631c790a9061cd8137fd215b","631c790a9061cd8137fd215b_20240207","","","","5","5","1511",""
"4438","0","html-button-response","168","963164","0.0-167.0","631c790a9061cd8137fd215b","631c790a9061cd8137fd215b_20240207","","","","6","5","326",""
"5904","0","html-button-response","169","969579","0.0-168.0","631c790a9061cd8137fd215b","631c790a9061cd8137fd215b_20240207","","","","6","2","1273",""
"3592","0","html-button-response","170","973682","0.0-169.0","631c790a9061cd8137fd215b","631c790a9061cd8137fd215b_20240207","","","","8","2","2040",""
"3461","0","html-button-response","171","977709","0.0-170.0","631c790a9061cd8137fd215b","631c790a9061cd8137fd215b_20240207","","","","5","5","1111",""
"3129","0","html-button-response","172","981344","0.0-171.0","631c790a9061cd8137fd215b","631c790a9061cd8137fd215b_20240207","","","","8","5","900",""
"3759","0","html-button-response","173","985614","0.0-172.0","631c790a9061cd8137fd215b","631c790a9061cd8137fd215b_20240207","","","","8","3","166",""
"3537","0","html-button-response","174","989660","0.0-173.0","631c790a9061cd8137fd215b","631c790a9061cd8137fd215b_20240207","","","","8","2","557",""
"3026","0","html-button-response","175","993201","0.0-174.0","631c790a9061cd8137fd215b","631c790a9061cd8137fd215b_20240207","","","","8","5","356",""
"2541","0","html-button-response","176","996247","0.0-175.0","631c790a9061cd8137fd215b","631c790a9061cd8137fd215b_20240207","","","","5","5","1499",""
"3454","0","html-button-response","177","1000210","0.0-176.0","631c790a9061cd8137fd215b","631c790a9061cd8137fd215b_20240207","","","","7","5","784",""
"3168","0","html-button-response","178","1003881","0.0-177.0","631c790a9061cd8137fd215b","631c790a9061cd8137fd215b_20240207","","","","8","5","264",""
"5493","0","html-button-response","179","1009922","0.0-178.0","631c790a9061cd8137fd215b","631c790a9061cd8137fd215b_20240207","","","","4","5","1620",""
"2983","0","html-button-response","180","1013410","0.0-179.0","631c790a9061cd8137fd215b","631c790a9061cd8137fd215b_20240207","","","","4","5","1309",""
"2655","0","html-button-response","181","1016580","0.0-180.0","631c790a9061cd8137fd215b","631c790a9061cd8137fd215b_20240207","","","","7","5","471",""
"3172","0","html-button-response","182","1020255","0.0-181.0","631c790a9061cd8137fd215b","631c790a9061cd8137fd215b_20240207","","","","4","5","1687",""
"3096","0","html-button-response","183","1023910","0.0-182.0","631c790a9061cd8137fd215b","631c790a9061cd8137fd215b_20240207","","","","7","4","160",""
"2888","0","html-button-response","184","1027305","0.0-183.0","631c790a9061cd8137fd215b","631c790a9061cd8137fd215b_20240207","","","","5","5","2178",""
"5814","0","html-button-response","185","1033620","0.0-184.0","631c790a9061cd8137fd215b","631c790a9061cd8137fd215b_20240207","","","","5","2","117",""
"4944","0","html-button-response","186","1039078","0.0-185.0","631c790a9061cd8137fd215b","631c790a9061cd8137fd215b_20240207","","","","7","1","1022",""
"7857","0","html-button-response","187","1047449","0.0-186.0","631c790a9061cd8137fd215b","631c790a9061cd8137fd215b_20240207","","","","8","7","864",""
"3303","0","html-button-response","188","1051263","0.0-187.0","631c790a9061cd8137fd215b","631c790a9061cd8137fd215b_20240207","","","","8","5","565",""
"5687","0","html-button-response","189","1057455","0.0-188.0","631c790a9061cd8137fd215b","631c790a9061cd8137fd215b_20240207","","","","5","5","1514",""
"2082","0","html-button-response","190","1060045","0.0-189.0","631c790a9061cd8137fd215b","631c790a9061cd8137fd215b_20240207","","","","5","5","1814",""
"3933","0","html-button-response","191","1064488","0.0-190.0","631c790a9061cd8137fd215b","631c790a9061cd8137fd215b_20240207","","","","6","8","1760",""
"3928","0","html-button-response","192","1068918","0.0-191.0","631c790a9061cd8137fd215b","631c790a9061cd8137fd215b_20240207","","","","4","2","1014",""
"4948","0","html-button-response","193","1074378","0.0-192.0","631c790a9061cd8137fd215b","631c790a9061cd8137fd215b_20240207","","","","7","8","1745",""
"3694","0","html-button-response","194","1078586","0.0-193.0","631c790a9061cd8137fd215b","631c790a9061cd8137fd215b_20240207","","","","6","8","1564",""
"5437","0","html-button-response","195","1084523","0.0-194.0","631c790a9061cd8137fd215b","631c790a9061cd8137fd215b_20240207","","","","7","1","2041",""
"3163","0","html-button-response","196","1088191","0.0-195.0","631c790a9061cd8137fd215b","631c790a9061cd8137fd215b_20240207","","","","7","2","1257",""
"4487","0","html-button-response","197","1093181","0.0-196.0","631c790a9061cd8137fd215b","631c790a9061cd8137fd215b_20240207","","","","5","4","1141",""
"3937","0","html-button-response","198","1097633","0.0-197.0","631c790a9061cd8137fd215b","631c790a9061cd8137fd215b_20240207","","","","8","6","522",""
"3763","0","html-button-response","199","1101910","0.0-198.0","631c790a9061cd8137fd215b","631c790a9061cd8137fd215b_20240207","","","","8","3","155",""
"3740","0","html-button-response","200","1106155","0.0-199.0","631c790a9061cd8137fd215b","631c790a9061cd8137fd215b_20240207","","","","5","5","2151",""
"3432","0","html-button-response","201","1110102","0.0-200.0","631c790a9061cd8137fd215b","631c790a9061cd8137fd215b_20240207","","","","5","5","1808",""
"3428","0","html-button-response","202","1114040","0.0-201.0","631c790a9061cd8137fd215b","631c790a9061cd8137fd215b_20240207","","","","5","5","1849",""
"3457","0","html-button-response","203","1118011","0.0-202.0","631c790a9061cd8137fd215b","631c790a9061cd8137fd215b_20240207","","","","7","7","2070",""
"4699","0","html-button-response","204","1123220","0.0-203.0","631c790a9061cd8137fd215b","631c790a9061cd8137fd215b_20240207","","","","7","3","168",""
"4333","0","html-button-response","205","1128065","0.0-204.0","631c790a9061cd8137fd215b","631c790a9061cd8137fd215b_20240207","","","","8","5","877",""
"3137","0","html-button-response","206","1131715","0.0-205.0","631c790a9061cd8137fd215b","631c790a9061cd8137fd215b_20240207","","","","7","3","298",""
"45956","0","html-button-response","207","1178181","0.0-206.0","631c790a9061cd8137fd215b","631c790a9061cd8137fd215b_20240207","","","","6","3","1764",""
"3094","0","html-button-response","208","1181780","0.0-207.0","631c790a9061cd8137fd215b","631c790a9061cd8137fd215b_20240207","","","","8","2","738",""
"5288","0","html-button-response","209","1187585","0.0-208.0","631c790a9061cd8137fd215b","631c790a9061cd8137fd215b_20240207","","","","8","3","1880",""
"2590","0","html-button-response","210","1190680","0.0-209.0","631c790a9061cd8137fd215b","631c790a9061cd8137fd215b_20240207","","","","5","5","1149",""
"2945","0","html-button-response","211","1194137","0.0-210.0","631c790a9061cd8137fd215b","631c790a9061cd8137fd215b_20240207","","","","5","5","971",""
"3053","0","html-button-response","212","1197694","0.0-211.0","631c790a9061cd8137fd215b","631c790a9061cd8137fd215b_20240207","","","","8","5","257",""
"2975","0","html-button-response","213","1201182","0.0-212.0","631c790a9061cd8137fd215b","631c790a9061cd8137fd215b_20240207","","","","8","2","1712",""
"3087","0","html-button-response","214","1204777","0.0-213.0","631c790a9061cd8137fd215b","631c790a9061cd8137fd215b_20240207","","","","9","9","677",""
"3509","0","html-button-response","215","1208789","0.0-214.0","631c790a9061cd8137fd215b","631c790a9061cd8137fd215b_20240207","","","","6","2","1105",""
"2303","0","html-button-response","216","1211596","0.0-215.0","631c790a9061cd8137fd215b","631c790a9061cd8137fd215b_20240207","","","","5","5","1844",""
"5243","0","html-button-response","217","1217343","0.0-216.0","631c790a9061cd8137fd215b","631c790a9061cd8137fd215b_20240207","","","","8","5","358",""
"5138","0","html-button-response","218","1222996","0.0-217.0","631c790a9061cd8137fd215b","631c790a9061cd8137fd215b_20240207","","","","7","9","2081",""
"3096","0","html-button-response","219","1226594","0.0-218.0","631c790a9061cd8137fd215b","631c790a9061cd8137fd215b_20240207","","","","5","5","1684",""
"2943","0","html-button-response","220","1230047","0.0-219.0","631c790a9061cd8137fd215b","631c790a9061cd8137fd215b_20240207","","","","5","5","1449",""
"2805","0","html-button-response","221","1233362","0.0-220.0","631c790a9061cd8137fd215b","631c790a9061cd8137fd215b_20240207","","","","5","5","1477",""
"2203","0","html-button-response","222","1236072","0.0-221.0","631c790a9061cd8137fd215b","631c790a9061cd8137fd215b_20240207","","","","5","5","1502",""
"3513","0","html-button-response","223","1240089","0.0-222.0","631c790a9061cd8137fd215b","631c790a9061cd8137fd215b_20240207","","","","5","5","1635",""
"2676","0","html-button-response","224","1243271","0.0-223.0","631c790a9061cd8137fd215b","631c790a9061cd8137fd215b_20240207","","","","6","7","1539",""
"3193","0","html-button-response","225","1246978","0.0-224.0","631c790a9061cd8137fd215b","631c790a9061cd8137fd215b_20240207","","","","6","7","1566",""
"1438","0","html-button-response","226","1248921","0.0-225.0","631c790a9061cd8137fd215b","631c790a9061cd8137fd215b_20240207","","","Thank you. You have reached the end. 
                       <br>Click the button below to reveal your compensation.
                        <br><br>","","","","1624,158,1297,1587,914,1047,642,610,68,199,1436,597,123,2025,1799,1945,139,502,1891,2199,1337,781,1446,1610,770,1705,157,318,484,604,2184,1192,113,419,1081,857,208,36,1670,734,1126,1326,511,960,974,1996,1487,1602,490,1459,1637,1283,1863,538,824,265,1882,2109,1718,1742,320,1593,1664,1455,315,329,2033,2020,246,389,1936,1019,1534,289,1432,230,1059,107,98,2035,392,1456,2042,190,1147,351,966,777,42,1725,541,1734,546,611,779,1352,317,638,1603,1336,34,1650,1093,352,801,1058,573,1321,1836,933,1618,983,391,1420,2171,550,1636,390,1931,561,295,1470,678,1621,1956,2114,91,432,1497,2107,1852,1004,85,1501,203,1781,2188,1064,1492,2129,1006,1217,189,548,1312,1450,1427,744,629,1570,1977,138,1109,310,253,1778,277,602,1263,1833,197,1511,326,1273,2040,1111,900,166,557,356,1499,784,264,1620,1309,471,1687,160,2178,117,1022,864,565,1514,1814,1760,1014,1745,1564,2041,1257,1141,522,155,2151,1808,1849,2070,168,877,298,1764,738,1880,1149,971,257,1712,677,1105,1844,358,2081,1684,1449,1477,1502,1635,1539,1566"
