"rt","response","trial_type","trial_index","time_elapsed","internal_node_id","part_ID","ID_DATE","screen_id","understand_correct","stimulus","arousal","valence","img_id","tested_trial_idx"
"25429","0","html-button-response","0","25434","0.0-0.0","653fc8e157cb0d038fe68fd6","653fc8e157cb0d038fe68fd6_20240207","","","","","","",""
"19265","[object Object]","survey-html-form","1","45216","0.0-1.0","653fc8e157cb0d038fe68fd6","653fc8e157cb0d038fe68fd6_20240207","prolific_id_page","","","","","",""
"280060","0","html-button-response","2","325277","0.0-2.0","653fc8e157cb0d038fe68fd6","653fc8e157cb0d038fe68fd6_20240207","","","","","","",""
"142477","0","html-button-response","3","468261","0.0-3.0-0.0","653fc8e157cb0d038fe68fd6","653fc8e157cb0d038fe68fd6_20240207","","true","","","","",""
"14960","0","html-button-response","4","483733","0.0-4.0","653fc8e157cb0d038fe68fd6","653fc8e157cb0d038fe68fd6_20240207","","","
<div>
Great! You will now go on to rate the faces.
<br><br>
</div>
","","","",""
"29350","0","html-button-response","5","513590","0.0-5.0","653fc8e157cb0d038fe68fd6","653fc8e157cb0d038fe68fd6_20240207","","","","5","5","1147",""
"49254","0","html-button-response","6","563358","0.0-6.0","653fc8e157cb0d038fe68fd6","653fc8e157cb0d038fe68fd6_20240207","","","","5","1","1698",""
"9949","0","html-button-response","7","573814","0.0-7.0","653fc8e157cb0d038fe68fd6","653fc8e157cb0d038fe68fd6_20240207","","","","5","5","1716",""
"21198","0","html-button-response","8","595518","0.0-8.0","653fc8e157cb0d038fe68fd6","653fc8e157cb0d038fe68fd6_20240207","","","","9","5","42",""
"77796","0","html-button-response","9","673822","0.0-9.0","653fc8e157cb0d038fe68fd6","653fc8e157cb0d038fe68fd6_20240207","","","","4","5","142",""
"10260","0","html-button-response","10","684590","0.0-10.0","653fc8e157cb0d038fe68fd6","653fc8e157cb0d038fe68fd6_20240207","","","","9","5","372",""
"42832","0","html-button-response","11","727926","0.0-11.0","653fc8e157cb0d038fe68fd6","653fc8e157cb0d038fe68fd6_20240207","","","","9","5","125",""
"42634","0","html-button-response","12","771078","0.0-12.0","653fc8e157cb0d038fe68fd6","653fc8e157cb0d038fe68fd6_20240207","","","","8","9","1187",""
"20406","0","html-button-response","13","791998","0.0-13.0","653fc8e157cb0d038fe68fd6","653fc8e157cb0d038fe68fd6_20240207","","","","4","1","2067",""
"13932","0","html-button-response","14","806426","0.0-14.0","653fc8e157cb0d038fe68fd6","653fc8e157cb0d038fe68fd6_20240207","","","","5","5","1090",""
"6494","0","html-button-response","15","813426","0.0-15.0","653fc8e157cb0d038fe68fd6","653fc8e157cb0d038fe68fd6_20240207","","","","9","5","512",""
"28176","0","html-button-response","16","842114","0.0-16.0","653fc8e157cb0d038fe68fd6","653fc8e157cb0d038fe68fd6_20240207","","","","5","5","1645",""
"6302","0","html-button-response","17","848923","0.0-17.0","653fc8e157cb0d038fe68fd6","653fc8e157cb0d038fe68fd6_20240207","","","","9","5","470",""
"4131","0","html-button-response","18","853577","0.0-18.0","653fc8e157cb0d038fe68fd6","653fc8e157cb0d038fe68fd6_20240207","","","","5","5","1512",""
"11290","0","html-button-response","19","865390","0.0-19.0","653fc8e157cb0d038fe68fd6","653fc8e157cb0d038fe68fd6_20240207","","","","5","1","1570",""
"64396","0","html-button-response","20","930294","0.0-20.0","653fc8e157cb0d038fe68fd6","653fc8e157cb0d038fe68fd6_20240207","","","","5","5","670",""
"12041","0","html-button-response","21","942846","0.0-21.0","653fc8e157cb0d038fe68fd6","653fc8e157cb0d038fe68fd6_20240207","","","","6","9","1590",""
"7849","0","html-button-response","22","951198","0.0-22.0","653fc8e157cb0d038fe68fd6","653fc8e157cb0d038fe68fd6_20240207","","","","9","5","757",""
"4292","0","html-button-response","23","956006","0.0-23.0","653fc8e157cb0d038fe68fd6","653fc8e157cb0d038fe68fd6_20240207","","","","5","5","1102",""
"15099","0","html-button-response","24","971614","0.0-24.0","653fc8e157cb0d038fe68fd6","653fc8e157cb0d038fe68fd6_20240207","","","","7","5","461",""
"26254","0","html-button-response","25","998374","0.0-25.0","653fc8e157cb0d038fe68fd6","653fc8e157cb0d038fe68fd6_20240207","","","","5","5","1972",""
"27765","0","html-button-response","26","1026646","0.0-26.0","653fc8e157cb0d038fe68fd6","653fc8e157cb0d038fe68fd6_20240207","","","","5","9","2160",""
"18065","0","html-button-response","27","1045222","0.0-27.0","653fc8e157cb0d038fe68fd6","653fc8e157cb0d038fe68fd6_20240207","","","","6","5","977",""
"17214","0","html-button-response","28","1062942","0.0-28.0","653fc8e157cb0d038fe68fd6","653fc8e157cb0d038fe68fd6_20240207","","","","9","5","2087",""
"150602","0","html-button-response","29","1214046","0.0-29.0","653fc8e157cb0d038fe68fd6","653fc8e157cb0d038fe68fd6_20240207","","","","5","5","1077",""
"14979","0","html-button-response","30","1229534","0.0-30.0","653fc8e157cb0d038fe68fd6","653fc8e157cb0d038fe68fd6_20240207","","","","5","5","1684",""
"10247","0","html-button-response","31","1240286","0.0-31.0","653fc8e157cb0d038fe68fd6","653fc8e157cb0d038fe68fd6_20240207","","","","9","5","44",""
"25386","0","html-button-response","32","1266190","0.0-32.0","653fc8e157cb0d038fe68fd6","653fc8e157cb0d038fe68fd6_20240207","","","","5","1","376",""
"29470","0","html-button-response","33","1296154","0.0-33.0","653fc8e157cb0d038fe68fd6","653fc8e157cb0d038fe68fd6_20240207","","","","5","5","1556",""
"16551","0","html-button-response","34","1313210","0.0-34.0","653fc8e157cb0d038fe68fd6","653fc8e157cb0d038fe68fd6_20240207","","","","5","5","570",""
"11759","0","html-button-response","35","1325475","0.0-35.0","653fc8e157cb0d038fe68fd6","653fc8e157cb0d038fe68fd6_20240207","","","","9","5","667",""
"20630","0","html-button-response","36","1346631","0.0-36.0","653fc8e157cb0d038fe68fd6","653fc8e157cb0d038fe68fd6_20240207","","","","9","5","154",""
"9284","0","html-button-response","37","1356431","0.0-37.0","653fc8e157cb0d038fe68fd6","653fc8e157cb0d038fe68fd6_20240207","","","","5","5","1975",""
"23531","0","html-button-response","38","1380471","0.0-38.0","653fc8e157cb0d038fe68fd6","653fc8e157cb0d038fe68fd6_20240207","","","","5","1","1884",""
"8405","0","html-button-response","39","1389383","0.0-39.0","653fc8e157cb0d038fe68fd6","653fc8e157cb0d038fe68fd6_20240207","","","","9","5","1759",""
"7808","0","html-button-response","40","1397703","0.0-40.0","653fc8e157cb0d038fe68fd6","653fc8e157cb0d038fe68fd6_20240207","","","","9","5","690",""
"8373","0","html-button-response","41","1406583","0.0-41.0","653fc8e157cb0d038fe68fd6","653fc8e157cb0d038fe68fd6_20240207","","","","5","5","1511",""
"26728","0","html-button-response","42","1433815","0.0-42.0","653fc8e157cb0d038fe68fd6","653fc8e157cb0d038fe68fd6_20240207","","","","5","5","1507",""
"12841","0","html-button-response","43","1447167","0.0-43.0","653fc8e157cb0d038fe68fd6","653fc8e157cb0d038fe68fd6_20240207","","","","5","5","466",""
"8365","0","html-button-response","44","1456038","0.0-44.0","653fc8e157cb0d038fe68fd6","653fc8e157cb0d038fe68fd6_20240207","","","","9","5","197",""
"7269","0","html-button-response","45","1463823","0.0-45.0","653fc8e157cb0d038fe68fd6","653fc8e157cb0d038fe68fd6_20240207","","","","9","5","449",""
"5175","0","html-button-response","46","1469502","0.0-46.0","653fc8e157cb0d038fe68fd6","653fc8e157cb0d038fe68fd6_20240207","","","","9","5","2133",""
"65189","0","html-button-response","47","1535207","0.0-47.0","653fc8e157cb0d038fe68fd6","653fc8e157cb0d038fe68fd6_20240207","","","","5","1","1883",""
"13653","0","html-button-response","48","1549367","0.0-48.0","653fc8e157cb0d038fe68fd6","653fc8e157cb0d038fe68fd6_20240207","","","","9","5","313",""
"23661","0","html-button-response","49","1573543","0.0-49.0","653fc8e157cb0d038fe68fd6","653fc8e157cb0d038fe68fd6_20240207","","","","5","5","1007",""
"18636","0","html-button-response","50","1592690","0.0-50.0","653fc8e157cb0d038fe68fd6","653fc8e157cb0d038fe68fd6_20240207","","","","7","5","1761",""
"11256","0","html-button-response","51","1604455","0.0-51.0","653fc8e157cb0d038fe68fd6","653fc8e157cb0d038fe68fd6_20240207","","","","5","5","1808",""
"17380","0","html-button-response","52","1622343","0.0-52.0","653fc8e157cb0d038fe68fd6","653fc8e157cb0d038fe68fd6_20240207","","","","5","5","412",""
"18205","0","html-button-response","53","1641057","0.0-53.0","653fc8e157cb0d038fe68fd6","653fc8e157cb0d038fe68fd6_20240207","","","","5","5","502",""
"17854","0","html-button-response","54","1659422","0.0-54.0","653fc8e157cb0d038fe68fd6","653fc8e157cb0d038fe68fd6_20240207","","","","9","5","2124",""
"40981","0","html-button-response","55","1700919","0.0-55.0","653fc8e157cb0d038fe68fd6","653fc8e157cb0d038fe68fd6_20240207","","","","5","5","2113",""
"7829","0","html-button-response","56","1709263","0.0-56.0","653fc8e157cb0d038fe68fd6","653fc8e157cb0d038fe68fd6_20240207","","","","9","5","32",""
"4344","0","html-button-response","57","1714112","0.0-57.0","653fc8e157cb0d038fe68fd6","653fc8e157cb0d038fe68fd6_20240207","","","","9","5","601",""
"17168","0","html-button-response","58","1731783","0.0-58.0","653fc8e157cb0d038fe68fd6","653fc8e157cb0d038fe68fd6_20240207","","","","9","9","1562",""
"25682","0","html-button-response","59","1757975","0.0-59.0","653fc8e157cb0d038fe68fd6","653fc8e157cb0d038fe68fd6_20240207","","","","5","9","890",""
"16895","0","html-button-response","60","1775376","0.0-60.0","653fc8e157cb0d038fe68fd6","653fc8e157cb0d038fe68fd6_20240207","","","","9","5","160",""
"11920","0","html-button-response","61","1787799","0.0-61.0","653fc8e157cb0d038fe68fd6","653fc8e157cb0d038fe68fd6_20240207","","","","9","5","23",""
"5768","0","html-button-response","62","1794080","0.0-62.0","653fc8e157cb0d038fe68fd6","653fc8e157cb0d038fe68fd6_20240207","","","","5","1","598",""
"12094","0","html-button-response","63","1806679","0.0-63.0","653fc8e157cb0d038fe68fd6","653fc8e157cb0d038fe68fd6_20240207","","","","9","5","198",""
"54754","0","html-button-response","64","1861943","0.0-64.0","653fc8e157cb0d038fe68fd6","653fc8e157cb0d038fe68fd6_20240207","","","","5","1","1374",""
"12269","0","html-button-response","65","1874727","0.0-65.0","653fc8e157cb0d038fe68fd6","653fc8e157cb0d038fe68fd6_20240207","","","","9","5","94",""
"6057","0","html-button-response","66","1881295","0.0-66.0","653fc8e157cb0d038fe68fd6","653fc8e157cb0d038fe68fd6_20240207","","","","9","5","173",""
"9673","0","html-button-response","67","1891479","0.0-67.0","653fc8e157cb0d038fe68fd6","653fc8e157cb0d038fe68fd6_20240207","","","","5","5","1741",""
"12599","0","html-button-response","68","1904584","0.0-68.0","653fc8e157cb0d038fe68fd6","653fc8e157cb0d038fe68fd6_20240207","","","","5","5","1961",""
"6437","0","html-button-response","69","1911537","0.0-69.0","653fc8e157cb0d038fe68fd6","653fc8e157cb0d038fe68fd6_20240207","","","","9","5","1538",""
"10559","0","html-button-response","70","1922600","0.0-70.0","653fc8e157cb0d038fe68fd6","653fc8e157cb0d038fe68fd6_20240207","","","","5","9","2147",""
"30663","0","html-button-response","71","1953768","0.0-71.0","653fc8e157cb0d038fe68fd6","653fc8e157cb0d038fe68fd6_20240207","","","","5","5","1503",""
"9162","0","html-button-response","72","1963440","0.0-72.0","653fc8e157cb0d038fe68fd6","653fc8e157cb0d038fe68fd6_20240207","","","","9","5","860",""
"11933","0","html-button-response","73","1975880","0.0-73.0","653fc8e157cb0d038fe68fd6","653fc8e157cb0d038fe68fd6_20240207","","","","1","1","1024",""
"5435","0","html-button-response","74","1981831","0.0-74.0","653fc8e157cb0d038fe68fd6","653fc8e157cb0d038fe68fd6_20240207","","","","9","5","63",""
"7304","0","html-button-response","75","1989639","0.0-75.0","653fc8e157cb0d038fe68fd6","653fc8e157cb0d038fe68fd6_20240207","","","","5","5","999",""
"3567","0","html-button-response","76","1993720","0.0-76.0","653fc8e157cb0d038fe68fd6","653fc8e157cb0d038fe68fd6_20240207","","","","9","5","69",""
"9077","0","html-button-response","77","2003312","0.0-77.0","653fc8e157cb0d038fe68fd6","653fc8e157cb0d038fe68fd6_20240207","","","","9","5","911",""
"31324","0","html-button-response","78","2035144","0.0-78.0","653fc8e157cb0d038fe68fd6","653fc8e157cb0d038fe68fd6_20240207","","","","1","5","1424",""
"13369","0","html-button-response","79","2049024","0.0-79.0","653fc8e157cb0d038fe68fd6","653fc8e157cb0d038fe68fd6_20240207","","","","5","5","1333",""
"29358","0","html-button-response","80","2078896","0.0-80.0","653fc8e157cb0d038fe68fd6","653fc8e157cb0d038fe68fd6_20240207","","","","1","5","1440",""
"24973","0","html-button-response","81","2104384","0.0-81.0","653fc8e157cb0d038fe68fd6","653fc8e157cb0d038fe68fd6_20240207","","","","9","5","679",""
"10756","0","html-button-response","82","2115657","0.0-82.0","653fc8e157cb0d038fe68fd6","653fc8e157cb0d038fe68fd6_20240207","","","","1","5","1129",""
"11756","0","html-button-response","83","2127920","0.0-83.0","653fc8e157cb0d038fe68fd6","653fc8e157cb0d038fe68fd6_20240207","","","","5","1","437",""
"16192","0","html-button-response","84","2144624","0.0-84.0","653fc8e157cb0d038fe68fd6","653fc8e157cb0d038fe68fd6_20240207","","","","5","1","1157",""
"157838","0","html-button-response","85","2302968","0.0-85.0","653fc8e157cb0d038fe68fd6","653fc8e157cb0d038fe68fd6_20240207","","","","9","5","153",""
"70458","0","html-button-response","86","2373944","0.0-86.0","653fc8e157cb0d038fe68fd6","653fc8e157cb0d038fe68fd6_20240207","","","","1","5","871",""
"6852","0","html-button-response","87","2381303","0.0-87.0","653fc8e157cb0d038fe68fd6","653fc8e157cb0d038fe68fd6_20240207","","","","5","9","2084",""
"64832","0","html-button-response","88","2446648","0.0-88.0","653fc8e157cb0d038fe68fd6","653fc8e157cb0d038fe68fd6_20240207","","","","5","1","1352",""
"5396","0","html-button-response","89","2452553","0.0-89.0","653fc8e157cb0d038fe68fd6","653fc8e157cb0d038fe68fd6_20240207","","","","9","5","1888",""
"3773","0","html-button-response","90","2456840","0.0-90.0","653fc8e157cb0d038fe68fd6","653fc8e157cb0d038fe68fd6_20240207","","","","9","5","861",""
"43117","0","html-button-response","91","2500464","0.0-91.0","653fc8e157cb0d038fe68fd6","653fc8e157cb0d038fe68fd6_20240207","","","","1","5","867",""
"10238","0","html-button-response","92","2511208","0.0-92.0","653fc8e157cb0d038fe68fd6","653fc8e157cb0d038fe68fd6_20240207","","","","5","1","816",""
"18480","0","html-button-response","93","2530209","0.0-93.0","653fc8e157cb0d038fe68fd6","653fc8e157cb0d038fe68fd6_20240207","","","","9","5","1184",""
"15531","0","html-button-response","94","2546256","0.0-94.0","653fc8e157cb0d038fe68fd6","653fc8e157cb0d038fe68fd6_20240207","","","","5","5","2150",""
"5391","0","html-button-response","95","2552152","0.0-95.0","653fc8e157cb0d038fe68fd6","653fc8e157cb0d038fe68fd6_20240207","","","","5","1","75",""
"3764","0","html-button-response","96","2556424","0.0-96.0","653fc8e157cb0d038fe68fd6","653fc8e157cb0d038fe68fd6_20240207","","","","5","1","349",""
"4401","0","html-button-response","97","2561328","0.0-97.0","653fc8e157cb0d038fe68fd6","653fc8e157cb0d038fe68fd6_20240207","","","","9","5","2042",""
"4500","0","html-button-response","98","2566336","0.0-98.0","653fc8e157cb0d038fe68fd6","653fc8e157cb0d038fe68fd6_20240207","","","","5","5","1956",""
"20413","0","html-button-response","99","2587256","0.0-99.0","653fc8e157cb0d038fe68fd6","653fc8e157cb0d038fe68fd6_20240207","","","","5","5","1139",""
"21648","0","html-button-response","100","2609408","0.0-100.0","653fc8e157cb0d038fe68fd6","653fc8e157cb0d038fe68fd6_20240207","","","","5","1","1144",""
"5934","0","html-button-response","101","2615848","0.0-101.0","653fc8e157cb0d038fe68fd6","653fc8e157cb0d038fe68fd6_20240207","","","","5","5","1856",""
"5437","0","html-button-response","102","2621801","0.0-102.0","653fc8e157cb0d038fe68fd6","653fc8e157cb0d038fe68fd6_20240207","","","","9","5","1900",""
"3765","0","html-button-response","103","2626080","0.0-103.0","653fc8e157cb0d038fe68fd6","653fc8e157cb0d038fe68fd6_20240207","","","","9","5","1241",""
"5524","0","html-button-response","104","2632112","0.0-104.0","653fc8e157cb0d038fe68fd6","653fc8e157cb0d038fe68fd6_20240207","","","","5","5","1491",""
"6161","0","html-button-response","105","2638784","0.0-105.0","653fc8e157cb0d038fe68fd6","653fc8e157cb0d038fe68fd6_20240207","","","","1","5","650",""
"3698","0","html-button-response","106","2642985","0.0-106.0","653fc8e157cb0d038fe68fd6","653fc8e157cb0d038fe68fd6_20240207","","","","1","5","791",""
"6984","0","html-button-response","107","2650473","0.0-107.0","653fc8e157cb0d038fe68fd6","653fc8e157cb0d038fe68fd6_20240207","","","","5","9","1603",""
"5723","0","html-button-response","108","2656704","0.0-108.0","653fc8e157cb0d038fe68fd6","653fc8e157cb0d038fe68fd6_20240207","","","","5","5","1348",""
"5719","0","html-button-response","109","2662928","0.0-109.0","653fc8e157cb0d038fe68fd6","653fc8e157cb0d038fe68fd6_20240207","","","","9","5","280",""
"3996","0","html-button-response","110","2667440","0.0-110.0","653fc8e157cb0d038fe68fd6","653fc8e157cb0d038fe68fd6_20240207","","","","9","5","1392",""
"6919","0","html-button-response","111","2674864","0.0-111.0","653fc8e157cb0d038fe68fd6","653fc8e157cb0d038fe68fd6_20240207","","","","5","1","633",""
"3580","0","html-button-response","112","2678961","0.0-112.0","653fc8e157cb0d038fe68fd6","653fc8e157cb0d038fe68fd6_20240207","","","","5","1","298",""
"14744","0","html-button-response","113","2694209","0.0-113.0","653fc8e157cb0d038fe68fd6","653fc8e157cb0d038fe68fd6_20240207","","","","1","5","1806",""
"10947","0","html-button-response","114","2705665","0.0-114.0","653fc8e157cb0d038fe68fd6","653fc8e157cb0d038fe68fd6_20240207","","","","5","1","2001",""
"12804","0","html-button-response","115","2718977","0.0-115.0","653fc8e157cb0d038fe68fd6","653fc8e157cb0d038fe68fd6_20240207","","","","5","1","12",""
"8395","0","html-button-response","116","2727881","0.0-116.0","653fc8e157cb0d038fe68fd6","653fc8e157cb0d038fe68fd6_20240207","","","","5","5","336",""
"4997","0","html-button-response","117","2733385","0.0-117.0","653fc8e157cb0d038fe68fd6","653fc8e157cb0d038fe68fd6_20240207","","","","9","5","1710",""
"4116","0","html-button-response","118","2738017","0.0-118.0","653fc8e157cb0d038fe68fd6","653fc8e157cb0d038fe68fd6_20240207","","","","5","5","1618",""
"5738","0","html-button-response","119","2744272","0.0-119.0","653fc8e157cb0d038fe68fd6","653fc8e157cb0d038fe68fd6_20240207","","","","1","1","2105",""
"3768","0","html-button-response","120","2748553","0.0-120.0","653fc8e157cb0d038fe68fd6","653fc8e157cb0d038fe68fd6_20240207","","","","5","9","1020",""
"5195","0","html-button-response","121","2754257","0.0-121.0","653fc8e157cb0d038fe68fd6","653fc8e157cb0d038fe68fd6_20240207","","","","5","5","2172",""
"5176","0","html-button-response","122","2759945","0.0-122.0","653fc8e157cb0d038fe68fd6","653fc8e157cb0d038fe68fd6_20240207","","","","5","9","1071",""
"4980","0","html-button-response","123","2765432","0.0-123.0","653fc8e157cb0d038fe68fd6","653fc8e157cb0d038fe68fd6_20240207","","","","5","5","992",""
"7536","0","html-button-response","124","2773472","0.0-124.0","653fc8e157cb0d038fe68fd6","653fc8e157cb0d038fe68fd6_20240207","","","","5","1","868",""
"4576","0","html-button-response","125","2778553","0.0-125.0","653fc8e157cb0d038fe68fd6","653fc8e157cb0d038fe68fd6_20240207","","","","5","5","1268",""
"7068","0","html-button-response","126","2786128","0.0-126.0","653fc8e157cb0d038fe68fd6","653fc8e157cb0d038fe68fd6_20240207","","","","1","5","1404",""
"8193","0","html-button-response","127","2794825","0.0-127.0","653fc8e157cb0d038fe68fd6","653fc8e157cb0d038fe68fd6_20240207","","","","5","9","1410",""
"11118","0","html-button-response","128","2806448","0.0-128.0","653fc8e157cb0d038fe68fd6","653fc8e157cb0d038fe68fd6_20240207","","","","9","9","1224",""
"14541","0","html-button-response","129","2821496","0.0-129.0","653fc8e157cb0d038fe68fd6","653fc8e157cb0d038fe68fd6_20240207","","","","1","5","597",""
"5445","0","html-button-response","130","2827448","0.0-130.0","653fc8e157cb0d038fe68fd6","653fc8e157cb0d038fe68fd6_20240207","","","","5","1","26",""
"4061","0","html-button-response","131","2832024","0.0-131.0","653fc8e157cb0d038fe68fd6","653fc8e157cb0d038fe68fd6_20240207","","","","5","5","329",""
"6455","0","html-button-response","132","2838984","0.0-132.0","653fc8e157cb0d038fe68fd6","653fc8e157cb0d038fe68fd6_20240207","","","","9","9","2057",""
"6454","0","html-button-response","133","2845952","0.0-133.0","653fc8e157cb0d038fe68fd6","653fc8e157cb0d038fe68fd6_20240207","","","","5","5","1350",""
"7100","0","html-button-response","134","2853561","0.0-134.0","653fc8e157cb0d038fe68fd6","653fc8e157cb0d038fe68fd6_20240207","","","","5","5","1006",""
"4445","0","html-button-response","135","2858512","0.0-135.0","653fc8e157cb0d038fe68fd6","653fc8e157cb0d038fe68fd6_20240207","","","","9","5","146",""
"7181","0","html-button-response","136","2866209","0.0-136.0","653fc8e157cb0d038fe68fd6","653fc8e157cb0d038fe68fd6_20240207","","","","1","5","1650",""
"11031","0","html-button-response","137","2877745","0.0-137.0","653fc8e157cb0d038fe68fd6","653fc8e157cb0d038fe68fd6_20240207","","","","1","5","1373",""
"4517","0","html-button-response","138","2882769","0.0-138.0","653fc8e157cb0d038fe68fd6","653fc8e157cb0d038fe68fd6_20240207","","","","9","9","849",""
"3658","0","html-button-response","139","2886937","0.0-139.0","653fc8e157cb0d038fe68fd6","653fc8e157cb0d038fe68fd6_20240207","","","","9","5","627",""
"5226","0","html-button-response","140","2892681","0.0-140.0","653fc8e157cb0d038fe68fd6","653fc8e157cb0d038fe68fd6_20240207","","","","1","5","1663",""
"3462","0","html-button-response","141","2896658","0.0-141.0","653fc8e157cb0d038fe68fd6","653fc8e157cb0d038fe68fd6_20240207","","","","5","5","1812",""
"5545","0","html-button-response","142","2902705","0.0-142.0","653fc8e157cb0d038fe68fd6","653fc8e157cb0d038fe68fd6_20240207","","","","5","9","1769",""
"6285","0","html-button-response","143","2909497","0.0-143.0","653fc8e157cb0d038fe68fd6","653fc8e157cb0d038fe68fd6_20240207","","","","5","5","1674",""
"3381","0","html-button-response","144","2913385","0.0-144.0","653fc8e157cb0d038fe68fd6","653fc8e157cb0d038fe68fd6_20240207","","","","5","5","1994",""
"7574","0","html-button-response","145","2921465","0.0-145.0","653fc8e157cb0d038fe68fd6","653fc8e157cb0d038fe68fd6_20240207","","","","7","1","1365",""
"5296","0","html-button-response","146","2927265","0.0-146.0","653fc8e157cb0d038fe68fd6","653fc8e157cb0d038fe68fd6_20240207","","","","5","1","362",""
"5134","0","html-button-response","147","2932905","0.0-147.0","653fc8e157cb0d038fe68fd6","653fc8e157cb0d038fe68fd6_20240207","","","","8","5","617",""
"6614","0","html-button-response","148","2940025","0.0-148.0","653fc8e157cb0d038fe68fd6","653fc8e157cb0d038fe68fd6_20240207","","","","1","1","1297",""
"6195","0","html-button-response","149","2946729","0.0-149.0","653fc8e157cb0d038fe68fd6","653fc8e157cb0d038fe68fd6_20240207","","","","1","5","2052",""
"7333","0","html-button-response","150","2954577","0.0-150.0","653fc8e157cb0d038fe68fd6","653fc8e157cb0d038fe68fd6_20240207","","","","1","1","156",""
"5153","0","html-button-response","151","2960241","0.0-151.0","653fc8e157cb0d038fe68fd6","653fc8e157cb0d038fe68fd6_20240207","","","","5","5","1816",""
"3784","0","html-button-response","152","2964537","0.0-152.0","653fc8e157cb0d038fe68fd6","653fc8e157cb0d038fe68fd6_20240207","","","","8","5","822",""
"4753","0","html-button-response","153","2969793","0.0-153.0","653fc8e157cb0d038fe68fd6","653fc8e157cb0d038fe68fd6_20240207","","","","5","5","2157",""
"5316","0","html-button-response","154","2975625","0.0-154.0","653fc8e157cb0d038fe68fd6","653fc8e157cb0d038fe68fd6_20240207","","","","5","1","164",""
"4524","0","html-button-response","155","2980665","0.0-155.0","653fc8e157cb0d038fe68fd6","653fc8e157cb0d038fe68fd6_20240207","","","","5","5","1520",""
"19388","0","html-button-response","156","3000570","0.0-156.0","653fc8e157cb0d038fe68fd6","653fc8e157cb0d038fe68fd6_20240207","","","","8","1","1711",""
"5375","0","html-button-response","157","3006449","0.0-157.0","653fc8e157cb0d038fe68fd6","653fc8e157cb0d038fe68fd6_20240207","","","","6","1","740",""
"3345","0","html-button-response","158","3010314","0.0-158.0","653fc8e157cb0d038fe68fd6","653fc8e157cb0d038fe68fd6_20240207","","","","5","5","1303",""
"3090","0","html-button-response","159","3013913","0.0-159.0","653fc8e157cb0d038fe68fd6","653fc8e157cb0d038fe68fd6_20240207","","","","5","5","1445",""
"4410","0","html-button-response","160","3018833","0.0-160.0","653fc8e157cb0d038fe68fd6","653fc8e157cb0d038fe68fd6_20240207","","","","5","5","778",""
"16269","0","html-button-response","161","3035609","0.0-161.0","653fc8e157cb0d038fe68fd6","653fc8e157cb0d038fe68fd6_20240207","","","","2","1","1528",""
"9395","0","html-button-response","162","3045521","0.0-162.0","653fc8e157cb0d038fe68fd6","653fc8e157cb0d038fe68fd6_20240207","","","","5","5","1858",""
"6800","0","html-button-response","163","3052825","0.0-163.0","653fc8e157cb0d038fe68fd6","653fc8e157cb0d038fe68fd6_20240207","","","","6","1","699",""
"4205","0","html-button-response","164","3057546","0.0-164.0","653fc8e157cb0d038fe68fd6","653fc8e157cb0d038fe68fd6_20240207","","","","7","5","190",""
"6226","0","html-button-response","165","3064281","0.0-165.0","653fc8e157cb0d038fe68fd6","653fc8e157cb0d038fe68fd6_20240207","","","","5","5","1679",""
"3597","0","html-button-response","166","3068393","0.0-166.0","653fc8e157cb0d038fe68fd6","653fc8e157cb0d038fe68fd6_20240207","","","","1","5","883",""
"3236","0","html-button-response","167","3072137","0.0-167.0","653fc8e157cb0d038fe68fd6","653fc8e157cb0d038fe68fd6_20240207","","","","5","5","1824",""
"6775","0","html-button-response","168","3079417","0.0-168.0","653fc8e157cb0d038fe68fd6","653fc8e157cb0d038fe68fd6_20240207","","","","1","5","1791",""
"5109","0","html-button-response","169","3085041","0.0-169.0","653fc8e157cb0d038fe68fd6","653fc8e157cb0d038fe68fd6_20240207","","","","9","9","1706",""
"3667","0","html-button-response","170","3089225","0.0-170.0","653fc8e157cb0d038fe68fd6","653fc8e157cb0d038fe68fd6_20240207","","","","9","5","615",""
"8143","0","html-button-response","171","3097881","0.0-171.0","653fc8e157cb0d038fe68fd6","653fc8e157cb0d038fe68fd6_20240207","","","","3","1","1040",""
"4517","0","html-button-response","172","3102906","0.0-172.0","653fc8e157cb0d038fe68fd6","653fc8e157cb0d038fe68fd6_20240207","","","","5","5","1351",""
"4783","0","html-button-response","173","3108193","0.0-173.0","653fc8e157cb0d038fe68fd6","653fc8e157cb0d038fe68fd6_20240207","","","","5","5","2016",""
"4293","0","html-button-response","174","3112993","0.0-174.0","653fc8e157cb0d038fe68fd6","653fc8e157cb0d038fe68fd6_20240207","","","","9","5","889",""
"7082","0","html-button-response","175","3120585","0.0-175.0","653fc8e157cb0d038fe68fd6","653fc8e157cb0d038fe68fd6_20240207","","","","9","9","2043",""
"3716","0","html-button-response","176","3124817","0.0-176.0","653fc8e157cb0d038fe68fd6","653fc8e157cb0d038fe68fd6_20240207","","","","5","5","1477",""
"5838","0","html-button-response","177","3131161","0.0-177.0","653fc8e157cb0d038fe68fd6","653fc8e157cb0d038fe68fd6_20240207","","","","5","1","1360",""
"3615","0","html-button-response","178","3135282","0.0-178.0","653fc8e157cb0d038fe68fd6","653fc8e157cb0d038fe68fd6_20240207","","","","7","5","783",""
"6277","0","html-button-response","179","3142065","0.0-179.0","653fc8e157cb0d038fe68fd6","653fc8e157cb0d038fe68fd6_20240207","","","","1","5","1231",""
"4460","0","html-button-response","180","3147033","0.0-180.0","653fc8e157cb0d038fe68fd6","653fc8e157cb0d038fe68fd6_20240207","","","","7","5","887",""
"8030","0","html-button-response","181","3155578","0.0-181.0","653fc8e157cb0d038fe68fd6","653fc8e157cb0d038fe68fd6_20240207","","","","5","5","414",""
"7822","0","html-button-response","182","3163905","0.0-182.0","653fc8e157cb0d038fe68fd6","653fc8e157cb0d038fe68fd6_20240207","","","","8","9","1579",""
"6144","0","html-button-response","183","3170561","0.0-183.0","653fc8e157cb0d038fe68fd6","653fc8e157cb0d038fe68fd6_20240207","","","","9","9","1042",""
"5652","0","html-button-response","184","3176716","0.0-184.0","653fc8e157cb0d038fe68fd6","653fc8e157cb0d038fe68fd6_20240207","","","","1","5","1534",""
"15515","0","html-button-response","185","3192746","0.0-185.0","653fc8e157cb0d038fe68fd6","653fc8e157cb0d038fe68fd6_20240207","","","","3","1","1208",""
"4480","0","html-button-response","186","3197729","0.0-186.0","653fc8e157cb0d038fe68fd6","653fc8e157cb0d038fe68fd6_20240207","","","","5","5","1175",""
"4193","0","html-button-response","187","3202425","0.0-187.0","653fc8e157cb0d038fe68fd6","653fc8e157cb0d038fe68fd6_20240207","","","","1","1","155",""
"5374","0","html-button-response","188","3208305","0.0-188.0","653fc8e157cb0d038fe68fd6","653fc8e157cb0d038fe68fd6_20240207","","","","2","1","1287",""
"5213","0","html-button-response","189","3214025","0.0-189.0","653fc8e157cb0d038fe68fd6","653fc8e157cb0d038fe68fd6_20240207","","","","8","5","384",""
"6883","0","html-button-response","190","3221425","0.0-190.0","653fc8e157cb0d038fe68fd6","653fc8e157cb0d038fe68fd6_20240207","","","","5","1","882",""
"7879","0","html-button-response","191","3229809","0.0-191.0","653fc8e157cb0d038fe68fd6","653fc8e157cb0d038fe68fd6_20240207","","","","5","5","567",""
"5597","0","html-button-response","192","3235922","0.0-192.0","653fc8e157cb0d038fe68fd6","653fc8e157cb0d038fe68fd6_20240207","","","","5","8","1382",""
"254656","0","html-button-response","193","3491084","0.0-193.0","653fc8e157cb0d038fe68fd6","653fc8e157cb0d038fe68fd6_20240207","","","","5","5","207",""
"5949","0","html-button-response","194","3497538","0.0-194.0","653fc8e157cb0d038fe68fd6","653fc8e157cb0d038fe68fd6_20240207","","","","9","5","730",""
"5020","0","html-button-response","195","3503074","0.0-195.0","653fc8e157cb0d038fe68fd6","653fc8e157cb0d038fe68fd6_20240207","","","","5","1","246",""
"5187","0","html-button-response","196","3508770","0.0-196.0","653fc8e157cb0d038fe68fd6","653fc8e157cb0d038fe68fd6_20240207","","","","3","1","1233",""
"7807","0","html-button-response","197","3517082","0.0-197.0","653fc8e157cb0d038fe68fd6","653fc8e157cb0d038fe68fd6_20240207","","","","5","9","1435",""
"6052","0","html-button-response","198","3523650","0.0-198.0","653fc8e157cb0d038fe68fd6","653fc8e157cb0d038fe68fd6_20240207","","","","5","5","2115",""
"5901","0","html-button-response","199","3530066","0.0-199.0","653fc8e157cb0d038fe68fd6","653fc8e157cb0d038fe68fd6_20240207","","","","1","5","2198",""
"14956","0","html-button-response","200","3545530","0.0-200.0","653fc8e157cb0d038fe68fd6","653fc8e157cb0d038fe68fd6_20240207","","","","5","9","2074",""
"6615","0","html-button-response","201","3552650","0.0-201.0","653fc8e157cb0d038fe68fd6","653fc8e157cb0d038fe68fd6_20240207","","","","3","1","777",""
"4779","0","html-button-response","202","3557938","0.0-202.0","653fc8e157cb0d038fe68fd6","653fc8e157cb0d038fe68fd6_20240207","","","","9","9","1876",""
"13137","0","html-button-response","203","3571586","0.0-203.0","653fc8e157cb0d038fe68fd6","653fc8e157cb0d038fe68fd6_20240207","","","","1","5","1414",""
"24576","0","html-button-response","204","3596674","0.0-204.0","653fc8e157cb0d038fe68fd6","653fc8e157cb0d038fe68fd6_20240207","","","","1","5","1086",""
"6182","0","html-button-response","205","3603362","0.0-205.0","653fc8e157cb0d038fe68fd6","653fc8e157cb0d038fe68fd6_20240207","","","","5","5","1815",""
"6018","0","html-button-response","206","3609898","0.0-206.0","653fc8e157cb0d038fe68fd6","653fc8e157cb0d038fe68fd6_20240207","","","","9","9","1587",""
"4530","0","html-button-response","207","3614946","0.0-207.0","653fc8e157cb0d038fe68fd6","653fc8e157cb0d038fe68fd6_20240207","","","","9","5","302",""
"35876","0","html-button-response","208","3651338","0.0-208.0","653fc8e157cb0d038fe68fd6","653fc8e157cb0d038fe68fd6_20240207","","","","8","5","293",""
"9988","0","html-button-response","209","3661841","0.0-209.0","653fc8e157cb0d038fe68fd6","653fc8e157cb0d038fe68fd6_20240207","","","","5","5","1957",""
"22716","0","html-button-response","210","3685074","0.0-210.0","653fc8e157cb0d038fe68fd6","653fc8e157cb0d038fe68fd6_20240207","","","","5","5","2164",""
"20347","0","html-button-response","211","3705937","0.0-211.0","653fc8e157cb0d038fe68fd6","653fc8e157cb0d038fe68fd6_20240207","","","","5","5","1059",""
"8815","0","html-button-response","212","3715257","0.0-212.0","653fc8e157cb0d038fe68fd6","653fc8e157cb0d038fe68fd6_20240207","","","","9","9","1745",""
"4953","0","html-button-response","213","3720738","0.0-213.0","653fc8e157cb0d038fe68fd6","653fc8e157cb0d038fe68fd6_20240207","","","","9","5","433",""
"4811","0","html-button-response","214","3726051","0.0-214.0","653fc8e157cb0d038fe68fd6","653fc8e157cb0d038fe68fd6_20240207","","","","9","9","2059",""
"4924","0","html-button-response","215","3731482","0.0-215.0","653fc8e157cb0d038fe68fd6","653fc8e157cb0d038fe68fd6_20240207","","","","9","5","29",""
"8587","0","html-button-response","216","3740578","0.0-216.0","653fc8e157cb0d038fe68fd6","653fc8e157cb0d038fe68fd6_20240207","","","","1","5","1753",""
"10372","0","html-button-response","217","3751458","0.0-217.0","653fc8e157cb0d038fe68fd6","653fc8e157cb0d038fe68fd6_20240207","","","","1","5","555",""
"5387","0","html-button-response","218","3757362","0.0-218.0","653fc8e157cb0d038fe68fd6","653fc8e157cb0d038fe68fd6_20240207","","","","5","5","1125",""
"6471","0","html-button-response","219","3764342","0.0-219.0","653fc8e157cb0d038fe68fd6","653fc8e157cb0d038fe68fd6_20240207","","","","1","5","1427",""
"5416","0","html-button-response","220","3770274","0.0-220.0","653fc8e157cb0d038fe68fd6","653fc8e157cb0d038fe68fd6_20240207","","","","5","5","1342",""
"8229","0","html-button-response","221","3779010","0.0-221.0","653fc8e157cb0d038fe68fd6","653fc8e157cb0d038fe68fd6_20240207","","","","5","5","1304",""
"9789","0","html-button-response","222","3789314","0.0-222.0","653fc8e157cb0d038fe68fd6","653fc8e157cb0d038fe68fd6_20240207","","","","8","5","875",""
"8114","0","html-button-response","223","3797938","0.0-223.0","653fc8e157cb0d038fe68fd6","653fc8e157cb0d038fe68fd6_20240207","","","","1","1","622",""
"12729","0","html-button-response","224","3811170","0.0-224.0","653fc8e157cb0d038fe68fd6","653fc8e157cb0d038fe68fd6_20240207","","","","1","9","1119",""
"4125","0","html-button-response","225","3815802","0.0-225.0","653fc8e157cb0d038fe68fd6","653fc8e157cb0d038fe68fd6_20240207","","","Thank you. You have reached the end. 
                       <br>Click the button below to reveal your compensation.
                        <br><br>","","","","1147,1698,1716,42,142,372,125,1187,2067,1090,512,1645,470,1512,1570,670,1590,757,1102,461,1972,2160,977,2087,1077,1684,44,376,1556,570,667,154,1975,1884,1759,690,1511,1507,466,197,449,2133,1883,313,1007,1761,1808,412,502,2124,2113,32,601,1562,890,160,23,598,198,1374,94,173,1741,1961,1538,2147,1503,860,1024,63,999,69,911,1424,1333,1440,679,1129,437,1157,153,871,2084,1352,1888,861,867,816,1184,2150,75,349,2042,1956,1139,1144,1856,1900,1241,1491,650,791,1603,1348,280,1392,633,298,1806,2001,12,336,1710,1618,2105,1020,2172,1071,992,868,1268,1404,1410,1224,597,26,329,2057,1350,1006,146,1650,1373,849,627,1663,1812,1769,1674,1994,1365,362,617,1297,2052,156,1816,822,2157,164,1520,1711,740,1303,1445,778,1528,1858,699,190,1679,883,1824,1791,1706,615,1040,1351,2016,889,2043,1477,1360,783,1231,887,414,1579,1042,1534,1208,1175,155,1287,384,882,567,1382,207,730,246,1233,1435,2115,2198,2074,777,1876,1414,1086,1815,1587,302,293,1957,2164,1059,1745,433,2059,29,1753,555,1125,1427,1342,1304,875,622,1119"
