"rt","response","trial_type","trial_index","time_elapsed","internal_node_id","part_ID","ID_DATE","screen_id","understand_correct","stimulus","arousal","valence","img_id","tested_trial_idx"
"46456","0","html-button-response","0","46478","0.0-0.0","5a69f41df10cdb0001b10329","5a69f41df10cdb0001b10329_20240207","","","","","","",""
"6538","[object Object]","survey-html-form","1","53531","0.0-1.0","5a69f41df10cdb0001b10329","5a69f41df10cdb0001b10329_20240207","prolific_id_page","","","","","",""
"125523","0","html-button-response","2","179067","0.0-2.0","5a69f41df10cdb0001b10329","5a69f41df10cdb0001b10329_20240207","","","","","","",""
"58608","0","html-button-response","3","238190","0.0-3.0-0.0","5a69f41df10cdb0001b10329","5a69f41df10cdb0001b10329_20240207","","true","","","","",""
"2056","0","html-button-response","4","240760","0.0-4.0","5a69f41df10cdb0001b10329","5a69f41df10cdb0001b10329_20240207","","","
<div>
Great! You will now go on to rate the faces.
<br><br>
</div>
","","","",""
"11682","0","html-button-response","5","252955","0.0-5.0","5a69f41df10cdb0001b10329","5a69f41df10cdb0001b10329_20240207","","","","7","1","1545",""
"9880","0","html-button-response","6","263347","0.0-6.0","5a69f41df10cdb0001b10329","5a69f41df10cdb0001b10329_20240207","","","","6","9","1862",""
"8059","0","html-button-response","7","271916","0.0-7.0","5a69f41df10cdb0001b10329","5a69f41df10cdb0001b10329_20240207","","","","5","6","1808",""
"3296","0","html-button-response","8","275724","0.0-8.0","5a69f41df10cdb0001b10329","5a69f41df10cdb0001b10329_20240207","","","","5","5","952",""
"7318","0","html-button-response","9","283555","0.0-9.0","5a69f41df10cdb0001b10329","5a69f41df10cdb0001b10329_20240207","","","","4","3","402",""
"3085","0","html-button-response","10","287155","0.0-10.0","5a69f41df10cdb0001b10329","5a69f41df10cdb0001b10329_20240207","","","","5","4","1934",""
"4009","0","html-button-response","11","291679","0.0-11.0","5a69f41df10cdb0001b10329","5a69f41df10cdb0001b10329_20240207","","","","6","2","1569",""
"6823","0","html-button-response","12","299011","0.0-12.0","5a69f41df10cdb0001b10329","5a69f41df10cdb0001b10329_20240207","","","","4","1","2037",""
"3905","0","html-button-response","13","303424","0.0-13.0","5a69f41df10cdb0001b10329","5a69f41df10cdb0001b10329_20240207","","","","5","1","2054",""
"2929","0","html-button-response","14","306862","0.0-14.0","5a69f41df10cdb0001b10329","5a69f41df10cdb0001b10329_20240207","","","","5","5","1626",""
"4894","0","html-button-response","15","312266","0.0-15.0","5a69f41df10cdb0001b10329","5a69f41df10cdb0001b10329_20240207","","","","7","8","1238",""
"4942","0","html-button-response","16","317719","0.0-16.0","5a69f41df10cdb0001b10329","5a69f41df10cdb0001b10329_20240207","","","","4","5","977",""
"4240","0","html-button-response","17","322472","0.0-17.0","5a69f41df10cdb0001b10329","5a69f41df10cdb0001b10329_20240207","","","","4","3","935",""
"6587","0","html-button-response","18","329569","0.0-18.0","5a69f41df10cdb0001b10329","5a69f41df10cdb0001b10329_20240207","","","","7","3","231",""
"6001","0","html-button-response","19","336082","0.0-19.0","5a69f41df10cdb0001b10329","5a69f41df10cdb0001b10329_20240207","","","","9","7","341",""
"3165","0","html-button-response","20","339757","0.0-20.0","5a69f41df10cdb0001b10329","5a69f41df10cdb0001b10329_20240207","","","","7","5","577",""
"4337","0","html-button-response","21","344604","0.0-21.0","5a69f41df10cdb0001b10329","5a69f41df10cdb0001b10329_20240207","","","","4","5","1293",""
"4467","0","html-button-response","22","349578","0.0-22.0","5a69f41df10cdb0001b10329","5a69f41df10cdb0001b10329_20240207","","","","5","3","753",""
"3509","0","html-button-response","23","353595","0.0-23.0","5a69f41df10cdb0001b10329","5a69f41df10cdb0001b10329_20240207","","","","7","5","280",""
"4288","0","html-button-response","24","358394","0.0-24.0","5a69f41df10cdb0001b10329","5a69f41df10cdb0001b10329_20240207","","","","3","5","633",""
"4128","0","html-button-response","25","363031","0.0-25.0","5a69f41df10cdb0001b10329","5a69f41df10cdb0001b10329_20240207","","","","8","2","2039",""
"6994","0","html-button-response","26","370537","0.0-26.0","5a69f41df10cdb0001b10329","5a69f41df10cdb0001b10329_20240207","","","","8","5","70",""
"5566","0","html-button-response","27","376612","0.0-27.0","5a69f41df10cdb0001b10329","5a69f41df10cdb0001b10329_20240207","","","","6","7","2134",""
"8290","0","html-button-response","28","385410","0.0-28.0","5a69f41df10cdb0001b10329","5a69f41df10cdb0001b10329_20240207","","","","7","3","1216",""
"3507","0","html-button-response","29","389427","0.0-29.0","5a69f41df10cdb0001b10329","5a69f41df10cdb0001b10329_20240207","","","","5","6","2135",""
"7234","0","html-button-response","30","397173","0.0-30.0","5a69f41df10cdb0001b10329","5a69f41df10cdb0001b10329_20240207","","","","8","8","692",""
"5151","0","html-button-response","31","402839","0.0-31.0","5a69f41df10cdb0001b10329","5a69f41df10cdb0001b10329_20240207","","","","3","3","1088",""
"3128","0","html-button-response","32","406480","0.0-32.0","5a69f41df10cdb0001b10329","5a69f41df10cdb0001b10329_20240207","","","","5","5","1616",""
"2385","0","html-button-response","33","409379","0.0-33.0","5a69f41df10cdb0001b10329","5a69f41df10cdb0001b10329_20240207","","","","5","3","1413",""
"4530","0","html-button-response","34","414419","0.0-34.0","5a69f41df10cdb0001b10329","5a69f41df10cdb0001b10329_20240207","","","","4","5","2018",""
"5922","0","html-button-response","35","420849","0.0-35.0","5a69f41df10cdb0001b10329","5a69f41df10cdb0001b10329_20240207","","","","4","5","1302",""
"8673","0","html-button-response","36","430035","0.0-36.0","5a69f41df10cdb0001b10329","5a69f41df10cdb0001b10329_20240207","","","","7","4","40",""
"5920","0","html-button-response","37","436470","0.0-37.0","5a69f41df10cdb0001b10329","5a69f41df10cdb0001b10329_20240207","","","","8","2","518",""
"5482","0","html-button-response","38","442462","0.0-38.0","5a69f41df10cdb0001b10329","5a69f41df10cdb0001b10329_20240207","","","","4","2","13",""
"4565","0","html-button-response","39","447537","0.0-39.0","5a69f41df10cdb0001b10329","5a69f41df10cdb0001b10329_20240207","","","","4","4","974",""
"3825","0","html-button-response","40","451872","0.0-40.0","5a69f41df10cdb0001b10329","5a69f41df10cdb0001b10329_20240207","","","","7","5","471",""
"2560","0","html-button-response","41","454941","0.0-41.0","5a69f41df10cdb0001b10329","5a69f41df10cdb0001b10329_20240207","","","","5","5","1174",""
"3779","0","html-button-response","42","459230","0.0-42.0","5a69f41df10cdb0001b10329","5a69f41df10cdb0001b10329_20240207","","","","8","5","1392",""
"4322","0","html-button-response","43","464068","0.0-43.0","5a69f41df10cdb0001b10329","5a69f41df10cdb0001b10329_20240207","","","","4","5","1158",""
"4187","0","html-button-response","44","468766","0.0-44.0","5a69f41df10cdb0001b10329","5a69f41df10cdb0001b10329_20240207","","","","3","3","336",""
"5479","0","html-button-response","45","474757","0.0-45.0","5a69f41df10cdb0001b10329","5a69f41df10cdb0001b10329_20240207","","","","7","3","160",""
"4893","0","html-button-response","46","480164","0.0-46.0","5a69f41df10cdb0001b10329","5a69f41df10cdb0001b10329_20240207","","","","6","2","1532",""
"6076","0","html-button-response","47","486752","0.0-47.0","5a69f41df10cdb0001b10329","5a69f41df10cdb0001b10329_20240207","","","","5","5","1133",""
"3808","0","html-button-response","48","491073","0.0-48.0","5a69f41df10cdb0001b10329","5a69f41df10cdb0001b10329_20240207","","","","5","3","948",""
"4272","0","html-button-response","49","495857","0.0-49.0","5a69f41df10cdb0001b10329","5a69f41df10cdb0001b10329_20240207","","","","4","5","971",""
"8227","0","html-button-response","50","504590","0.0-50.0","5a69f41df10cdb0001b10329","5a69f41df10cdb0001b10329_20240207","","","","5","4","486",""
"6564","0","html-button-response","51","511662","0.0-51.0","5a69f41df10cdb0001b10329","5a69f41df10cdb0001b10329_20240207","","","","5","3","1203",""
"8067","0","html-button-response","52","520239","0.0-52.0","5a69f41df10cdb0001b10329","5a69f41df10cdb0001b10329_20240207","","","","4","4","246",""
"5672","0","html-button-response","53","526423","0.0-53.0","5a69f41df10cdb0001b10329","5a69f41df10cdb0001b10329_20240207","","","","8","6","235",""
"5142","0","html-button-response","54","532074","0.0-54.0","5a69f41df10cdb0001b10329","5a69f41df10cdb0001b10329_20240207","","","","4","2","696",""
"2938","0","html-button-response","55","535526","0.0-55.0","5a69f41df10cdb0001b10329","5a69f41df10cdb0001b10329_20240207","","","","5","5","1655",""
"4869","0","html-button-response","56","540903","0.0-56.0","5a69f41df10cdb0001b10329","5a69f41df10cdb0001b10329_20240207","","","","5","5","966",""
"6460","0","html-button-response","57","547873","0.0-57.0","5a69f41df10cdb0001b10329","5a69f41df10cdb0001b10329_20240207","","","","5","6","1796",""
"5162","0","html-button-response","58","553549","0.0-58.0","5a69f41df10cdb0001b10329","5a69f41df10cdb0001b10329_20240207","","","","4","3","1050",""
"2642","0","html-button-response","59","556704","0.0-59.0","5a69f41df10cdb0001b10329","5a69f41df10cdb0001b10329_20240207","","","","5","5","1983",""
"3234","0","html-button-response","60","560448","0.0-60.0","5a69f41df10cdb0001b10329","5a69f41df10cdb0001b10329_20240207","","","","5","7","1592",""
"3430","0","html-button-response","61","564388","0.0-61.0","5a69f41df10cdb0001b10329","5a69f41df10cdb0001b10329_20240207","","","","5","7","2121",""
"4524","0","html-button-response","62","569422","0.0-62.0","5a69f41df10cdb0001b10329","5a69f41df10cdb0001b10329_20240207","","","","3","5","1166",""
"2677","0","html-button-response","63","572610","0.0-63.0","5a69f41df10cdb0001b10329","5a69f41df10cdb0001b10329_20240207","","","","5","3","372",""
"3328","0","html-button-response","64","576450","0.0-64.0","5a69f41df10cdb0001b10329","5a69f41df10cdb0001b10329_20240207","","","","4","3","567",""
"4661","0","html-button-response","65","581622","0.0-65.0","5a69f41df10cdb0001b10329","5a69f41df10cdb0001b10329_20240207","","","","4","3","113",""
"4486","0","html-button-response","66","586621","0.0-66.0","5a69f41df10cdb0001b10329","5a69f41df10cdb0001b10329_20240207","","","","6","1","702",""
"3666","0","html-button-response","67","590796","0.0-67.0","5a69f41df10cdb0001b10329","5a69f41df10cdb0001b10329_20240207","","","","7","4","626",""
"3653","0","html-button-response","68","594962","0.0-68.0","5a69f41df10cdb0001b10329","5a69f41df10cdb0001b10329_20240207","","","","5","5","2016",""
"14136","0","html-button-response","69","609611","0.0-69.0","5a69f41df10cdb0001b10329","5a69f41df10cdb0001b10329_20240207","","","","6","4","606",""
"5268","0","html-button-response","70","615388","0.0-70.0","5a69f41df10cdb0001b10329","5a69f41df10cdb0001b10329_20240207","","","","6","6","926",""
"2823","0","html-button-response","71","618719","0.0-71.0","5a69f41df10cdb0001b10329","5a69f41df10cdb0001b10329_20240207","","","","5","5","998",""
"27664","0","html-button-response","72","646896","0.0-72.0","5a69f41df10cdb0001b10329","5a69f41df10cdb0001b10329_20240207","","","","5","6","797",""
"11685","0","html-button-response","73","659092","0.0-73.0","5a69f41df10cdb0001b10329","5a69f41df10cdb0001b10329_20240207","","","","4","5","1006",""
"2833","0","html-button-response","74","662435","0.0-74.0","5a69f41df10cdb0001b10329","5a69f41df10cdb0001b10329_20240207","","","","5","4","1283",""
"2787","0","html-button-response","75","665732","0.0-75.0","5a69f41df10cdb0001b10329","5a69f41df10cdb0001b10329_20240207","","","","6","6","122",""
"4084","0","html-button-response","76","670326","0.0-76.0","5a69f41df10cdb0001b10329","5a69f41df10cdb0001b10329_20240207","","","","6","3","1937",""
"13208","0","html-button-response","77","684048","0.0-77.0","5a69f41df10cdb0001b10329","5a69f41df10cdb0001b10329_20240207","","","","7","3","423",""
"3357","0","html-button-response","78","687917","0.0-78.0","5a69f41df10cdb0001b10329","5a69f41df10cdb0001b10329_20240207","","","","8","8","534",""
"2724","0","html-button-response","79","691150","0.0-79.0","5a69f41df10cdb0001b10329","5a69f41df10cdb0001b10329_20240207","","","","5","5","1332",""
"10677","0","html-button-response","80","702338","0.0-80.0","5a69f41df10cdb0001b10329","5a69f41df10cdb0001b10329_20240207","","","","6","6","757",""
"3526","0","html-button-response","81","706377","0.0-81.0","5a69f41df10cdb0001b10329","5a69f41df10cdb0001b10329_20240207","","","","5","3","1087",""
"5487","0","html-button-response","82","712376","0.0-82.0","5a69f41df10cdb0001b10329","5a69f41df10cdb0001b10329_20240207","","","","4","5","773",""
"2850","0","html-button-response","83","715738","0.0-83.0","5a69f41df10cdb0001b10329","5a69f41df10cdb0001b10329_20240207","","","","4","3","1896",""
"2639","0","html-button-response","84","718890","0.0-84.0","5a69f41df10cdb0001b10329","5a69f41df10cdb0001b10329_20240207","","","","8","8","719",""
"4995","0","html-button-response","85","724396","0.0-85.0","5a69f41df10cdb0001b10329","5a69f41df10cdb0001b10329_20240207","","","","8","7","732",""
"4660","0","html-button-response","86","729562","0.0-86.0","5a69f41df10cdb0001b10329","5a69f41df10cdb0001b10329_20240207","","","","5","3","1584",""
"3095","0","html-button-response","87","733164","0.0-87.0","5a69f41df10cdb0001b10329","5a69f41df10cdb0001b10329_20240207","","","","5","4","930",""
"5699","0","html-button-response","88","739373","0.0-88.0","5a69f41df10cdb0001b10329","5a69f41df10cdb0001b10329_20240207","","","","4","2","390",""
"9992","0","html-button-response","89","749873","0.0-89.0","5a69f41df10cdb0001b10329","5a69f41df10cdb0001b10329_20240207","","","","5","5","1504",""
"6439","0","html-button-response","90","756819","0.0-90.0","5a69f41df10cdb0001b10329","5a69f41df10cdb0001b10329_20240207","","","","3","3","674",""
"5587","0","html-button-response","91","762915","0.0-91.0","5a69f41df10cdb0001b10329","5a69f41df10cdb0001b10329_20240207","","","","5","3","427",""
"3607","0","html-button-response","92","767032","0.0-92.0","5a69f41df10cdb0001b10329","5a69f41df10cdb0001b10329_20240207","","","","8","8","1548",""
"3378","0","html-button-response","93","770921","0.0-93.0","5a69f41df10cdb0001b10329","5a69f41df10cdb0001b10329_20240207","","","","3","3","387",""
"2273","0","html-button-response","94","773706","0.0-94.0","5a69f41df10cdb0001b10329","5a69f41df10cdb0001b10329_20240207","","","","5","5","2174",""
"5375","0","html-button-response","95","779592","0.0-95.0","5a69f41df10cdb0001b10329","5a69f41df10cdb0001b10329_20240207","","","","8","2","204",""
"2085","0","html-button-response","96","782183","0.0-96.0","5a69f41df10cdb0001b10329","5a69f41df10cdb0001b10329_20240207","","","","5","5","1640",""
"3279","0","html-button-response","97","785974","0.0-97.0","5a69f41df10cdb0001b10329","5a69f41df10cdb0001b10329_20240207","","","","4","4","1623",""
"2270","0","html-button-response","98","788756","0.0-98.0","5a69f41df10cdb0001b10329","5a69f41df10cdb0001b10329_20240207","","","","4","4","1001",""
"8072","0","html-button-response","99","797341","0.0-99.0","5a69f41df10cdb0001b10329","5a69f41df10cdb0001b10329_20240207","","","","8","7","252",""
"2443","0","html-button-response","100","800294","0.0-100.0","5a69f41df10cdb0001b10329","5a69f41df10cdb0001b10329_20240207","","","","5","5","1520",""
"4657","0","html-button-response","101","805464","0.0-101.0","5a69f41df10cdb0001b10329","5a69f41df10cdb0001b10329_20240207","","","","5","8","1731",""
"2698","0","html-button-response","102","808673","0.0-102.0","5a69f41df10cdb0001b10329","5a69f41df10cdb0001b10329_20240207","","","","5","7","1436",""
"2991","0","html-button-response","103","812175","0.0-103.0","5a69f41df10cdb0001b10329","5a69f41df10cdb0001b10329_20240207","","","","5","5","1488",""
"4702","0","html-button-response","104","817386","0.0-104.0","5a69f41df10cdb0001b10329","5a69f41df10cdb0001b10329_20240207","","","","7","3","1702",""
"2674","0","html-button-response","105","820572","0.0-105.0","5a69f41df10cdb0001b10329","5a69f41df10cdb0001b10329_20240207","","","","5","5","1661",""
"5053","0","html-button-response","106","826135","0.0-106.0","5a69f41df10cdb0001b10329","5a69f41df10cdb0001b10329_20240207","","","","6","3","1570",""
"3456","0","html-button-response","107","830102","0.0-107.0","5a69f41df10cdb0001b10329","5a69f41df10cdb0001b10329_20240207","","","","5","3","1585",""
"3853","0","html-button-response","108","834465","0.0-108.0","5a69f41df10cdb0001b10329","5a69f41df10cdb0001b10329_20240207","","","","8","2","176",""
"2977","0","html-button-response","109","837951","0.0-109.0","5a69f41df10cdb0001b10329","5a69f41df10cdb0001b10329_20240207","","","","5","6","1483",""
"2961","0","html-button-response","110","841421","0.0-110.0","5a69f41df10cdb0001b10329","5a69f41df10cdb0001b10329_20240207","","","","5","4","452",""
"6561","0","html-button-response","111","848491","0.0-111.0","5a69f41df10cdb0001b10329","5a69f41df10cdb0001b10329_20240207","","","","7","6","915",""
"3252","0","html-button-response","112","852253","0.0-112.0","5a69f41df10cdb0001b10329","5a69f41df10cdb0001b10329_20240207","","","","5","8","1745",""
"4590","0","html-button-response","113","857352","0.0-113.0","5a69f41df10cdb0001b10329","5a69f41df10cdb0001b10329_20240207","","","","4","1","162",""
"2577","0","html-button-response","114","860439","0.0-114.0","5a69f41df10cdb0001b10329","5a69f41df10cdb0001b10329_20240207","","","","5","6","964",""
"4370","0","html-button-response","115","865319","0.0-115.0","5a69f41df10cdb0001b10329","5a69f41df10cdb0001b10329_20240207","","","","6","2","854",""
"5314","0","html-button-response","116","871145","0.0-116.0","5a69f41df10cdb0001b10329","5a69f41df10cdb0001b10329_20240207","","","","8","2","145",""
"6445","0","html-button-response","117","878103","0.0-117.0","5a69f41df10cdb0001b10329","5a69f41df10cdb0001b10329_20240207","","","","3","4","838",""
"6493","0","html-button-response","118","885106","0.0-118.0","5a69f41df10cdb0001b10329","5a69f41df10cdb0001b10329_20240207","","","","7","3","458",""
"5203","0","html-button-response","119","890818","0.0-119.0","5a69f41df10cdb0001b10329","5a69f41df10cdb0001b10329_20240207","","","","3","3","91",""
"2276","0","html-button-response","120","893601","0.0-120.0","5a69f41df10cdb0001b10329","5a69f41df10cdb0001b10329_20240207","","","","5","5","1498",""
"2900","0","html-button-response","121","897011","0.0-121.0","5a69f41df10cdb0001b10329","5a69f41df10cdb0001b10329_20240207","","","","4","3","1598",""
"3598","0","html-button-response","122","901120","0.0-122.0","5a69f41df10cdb0001b10329","5a69f41df10cdb0001b10329_20240207","","","","7","2","1373",""
"5412","0","html-button-response","123","907043","0.0-123.0","5a69f41df10cdb0001b10329","5a69f41df10cdb0001b10329_20240207","","","","9","9","508",""
"2766","0","html-button-response","124","910319","0.0-124.0","5a69f41df10cdb0001b10329","5a69f41df10cdb0001b10329_20240207","","","","5","2","338",""
"3109","0","html-button-response","125","913939","0.0-125.0","5a69f41df10cdb0001b10329","5a69f41df10cdb0001b10329_20240207","","","","4","5","808",""
"5583","0","html-button-response","126","920031","0.0-126.0","5a69f41df10cdb0001b10329","5a69f41df10cdb0001b10329_20240207","","","","5","5","1477",""
"3427","0","html-button-response","127","923966","0.0-127.0","5a69f41df10cdb0001b10329","5a69f41df10cdb0001b10329_20240207","","","","4","6","1990",""
"4548","0","html-button-response","128","929025","0.0-128.0","5a69f41df10cdb0001b10329","5a69f41df10cdb0001b10329_20240207","","","","4","4","460",""
"4048","0","html-button-response","129","933585","0.0-129.0","5a69f41df10cdb0001b10329","5a69f41df10cdb0001b10329_20240207","","","","4","7","1930",""
"2336","0","html-button-response","130","936430","0.0-130.0","5a69f41df10cdb0001b10329","5a69f41df10cdb0001b10329_20240207","","","","5","8","1561",""
"3059","0","html-button-response","131","939998","0.0-131.0","5a69f41df10cdb0001b10329","5a69f41df10cdb0001b10329_20240207","","","","5","4","1690",""
"2898","0","html-button-response","132","943409","0.0-132.0","5a69f41df10cdb0001b10329","5a69f41df10cdb0001b10329_20240207","","","","5","5","2193",""
"2511","0","html-button-response","133","946430","0.0-133.0","5a69f41df10cdb0001b10329","5a69f41df10cdb0001b10329_20240207","","","","5","8","1887",""
"3123","0","html-button-response","134","950063","0.0-134.0","5a69f41df10cdb0001b10329","5a69f41df10cdb0001b10329_20240207","","","","4","5","2022",""
"4229","0","html-button-response","135","954802","0.0-135.0","5a69f41df10cdb0001b10329","5a69f41df10cdb0001b10329_20240207","","","","4","3","234",""
"11506","0","html-button-response","136","966818","0.0-136.0","5a69f41df10cdb0001b10329","5a69f41df10cdb0001b10329_20240207","","","","6","8","1357",""
"2704","0","html-button-response","137","970030","0.0-137.0","5a69f41df10cdb0001b10329","5a69f41df10cdb0001b10329_20240207","","","","4","5","1510",""
"3891","0","html-button-response","138","974432","0.0-138.0","5a69f41df10cdb0001b10329","5a69f41df10cdb0001b10329_20240207","","","","5","8","1354",""
"4452","0","html-button-response","139","979395","0.0-139.0","5a69f41df10cdb0001b10329","5a69f41df10cdb0001b10329_20240207","","","","4","6","939",""
"3713","0","html-button-response","140","983618","0.0-140.0","5a69f41df10cdb0001b10329","5a69f41df10cdb0001b10329_20240207","","","","3","3","843",""
"4656","0","html-button-response","141","988783","0.0-141.0","5a69f41df10cdb0001b10329","5a69f41df10cdb0001b10329_20240207","","","","4","4","1685",""
"3539","0","html-button-response","142","992832","0.0-142.0","5a69f41df10cdb0001b10329","5a69f41df10cdb0001b10329_20240207","","","","6","8","1732",""
"3891","0","html-button-response","143","997231","0.0-143.0","5a69f41df10cdb0001b10329","5a69f41df10cdb0001b10329_20240207","","","","4","2","713",""
"4660","0","html-button-response","144","1002399","0.0-144.0","5a69f41df10cdb0001b10329","5a69f41df10cdb0001b10329_20240207","","","","4","4","999",""
"4469","0","html-button-response","145","1007381","0.0-145.0","5a69f41df10cdb0001b10329","5a69f41df10cdb0001b10329_20240207","","","","7","3","360",""
"7229","0","html-button-response","146","1015125","0.0-146.0","5a69f41df10cdb0001b10329","5a69f41df10cdb0001b10329_20240207","","","","8","6","380",""
"6399","0","html-button-response","147","1022032","0.0-147.0","5a69f41df10cdb0001b10329","5a69f41df10cdb0001b10329_20240207","","","","4","4","656",""
"5299","0","html-button-response","148","1027842","0.0-148.0","5a69f41df10cdb0001b10329","5a69f41df10cdb0001b10329_20240207","","","","5","3","414",""
"4098","0","html-button-response","149","1032452","0.0-149.0","5a69f41df10cdb0001b10329","5a69f41df10cdb0001b10329_20240207","","","","4","2","259",""
"3504","0","html-button-response","150","1036465","0.0-150.0","5a69f41df10cdb0001b10329","5a69f41df10cdb0001b10329_20240207","","","","3","2","569",""
"4683","0","html-button-response","151","1041660","0.0-151.0","5a69f41df10cdb0001b10329","5a69f41df10cdb0001b10329_20240207","","","","8","3","136",""
"4003","0","html-button-response","152","1046175","0.0-152.0","5a69f41df10cdb0001b10329","5a69f41df10cdb0001b10329_20240207","","","","4","2","1034",""
"4261","0","html-button-response","153","1050945","0.0-153.0","5a69f41df10cdb0001b10329","5a69f41df10cdb0001b10329_20240207","","","","4","6","1265",""
"3750","0","html-button-response","154","1055208","0.0-154.0","5a69f41df10cdb0001b10329","5a69f41df10cdb0001b10329_20240207","","","","5","3","883",""
"4261","0","html-button-response","155","1059983","0.0-155.0","5a69f41df10cdb0001b10329","5a69f41df10cdb0001b10329_20240207","","","","6","8","1225",""
"5716","0","html-button-response","156","1066208","0.0-156.0","5a69f41df10cdb0001b10329","5a69f41df10cdb0001b10329_20240207","","","","4","3","610",""
"6683","0","html-button-response","157","1073398","0.0-157.0","5a69f41df10cdb0001b10329","5a69f41df10cdb0001b10329_20240207","","","","4","3","1651",""
"5110","0","html-button-response","158","1079018","0.0-158.0","5a69f41df10cdb0001b10329","5a69f41df10cdb0001b10329_20240207","","","","8","5","20",""
"3495","0","html-button-response","159","1083023","0.0-159.0","5a69f41df10cdb0001b10329","5a69f41df10cdb0001b10329_20240207","","","","4","4","499",""
"4290","0","html-button-response","160","1087824","0.0-160.0","5a69f41df10cdb0001b10329","5a69f41df10cdb0001b10329_20240207","","","","5","5","1340",""
"4293","0","html-button-response","161","1092630","0.0-161.0","5a69f41df10cdb0001b10329","5a69f41df10cdb0001b10329_20240207","","","","6","3","180",""
"3699","0","html-button-response","162","1096839","0.0-162.0","5a69f41df10cdb0001b10329","5a69f41df10cdb0001b10329_20240207","","","","8","8","887",""
"2902","0","html-button-response","163","1100252","0.0-163.0","5a69f41df10cdb0001b10329","5a69f41df10cdb0001b10329_20240207","","","","4","4","1000",""
"3934","0","html-button-response","164","1104699","0.0-164.0","5a69f41df10cdb0001b10329","5a69f41df10cdb0001b10329_20240207","","","","7","4","254",""
"4360","0","html-button-response","165","1109571","0.0-165.0","5a69f41df10cdb0001b10329","5a69f41df10cdb0001b10329_20240207","","","","5","3","1389",""
"16952","0","html-button-response","166","1127030","0.0-166.0","5a69f41df10cdb0001b10329","5a69f41df10cdb0001b10329_20240207","","","","7","6","410",""
"17434","0","html-button-response","167","1144974","0.0-167.0","5a69f41df10cdb0001b10329","5a69f41df10cdb0001b10329_20240207","","","","5","3","357",""
"26604","0","html-button-response","168","1172091","0.0-168.0","5a69f41df10cdb0001b10329","5a69f41df10cdb0001b10329_20240207","","","","5","4","2191",""
"7507","0","html-button-response","169","1180110","0.0-169.0","5a69f41df10cdb0001b10329","5a69f41df10cdb0001b10329_20240207","","","","5","4","675",""
"15302","0","html-button-response","170","1195924","0.0-170.0","5a69f41df10cdb0001b10329","5a69f41df10cdb0001b10329_20240207","","","","7","3","215",""
"3326","0","html-button-response","171","1199760","0.0-171.0","5a69f41df10cdb0001b10329","5a69f41df10cdb0001b10329_20240207","","","","5","2","1455",""
"2964","0","html-button-response","172","1203233","0.0-172.0","5a69f41df10cdb0001b10329","5a69f41df10cdb0001b10329_20240207","","","","5","5","943",""
"3381","0","html-button-response","173","1207123","0.0-173.0","5a69f41df10cdb0001b10329","5a69f41df10cdb0001b10329_20240207","","","","5","4","137",""
"6051","0","html-button-response","174","1213684","0.0-174.0","5a69f41df10cdb0001b10329","5a69f41df10cdb0001b10329_20240207","","","","5","3","896",""
"4533","0","html-button-response","175","1218727","0.0-175.0","5a69f41df10cdb0001b10329","5a69f41df10cdb0001b10329_20240207","","","","5","2","220",""
"22664","0","html-button-response","176","1241901","0.0-176.0","5a69f41df10cdb0001b10329","5a69f41df10cdb0001b10329_20240207","","","","8","5","734",""
"3810","0","html-button-response","177","1246221","0.0-177.0","5a69f41df10cdb0001b10329","5a69f41df10cdb0001b10329_20240207","","","","7","7","1422",""
"5511","0","html-button-response","178","1252244","0.0-178.0","5a69f41df10cdb0001b10329","5a69f41df10cdb0001b10329_20240207","","","","5","4","1101",""
"4475","0","html-button-response","179","1257236","0.0-179.0","5a69f41df10cdb0001b10329","5a69f41df10cdb0001b10329_20240207","","","","6","6","1424",""
"4385","0","html-button-response","180","1262129","0.0-180.0","5a69f41df10cdb0001b10329","5a69f41df10cdb0001b10329_20240207","","","","3","2","154",""
"3044","0","html-button-response","181","1265688","0.0-181.0","5a69f41df10cdb0001b10329","5a69f41df10cdb0001b10329_20240207","","","","3","2","662",""
"2782","0","html-button-response","182","1268979","0.0-182.0","5a69f41df10cdb0001b10329","5a69f41df10cdb0001b10329_20240207","","","","3","2","493",""
"3157","0","html-button-response","183","1272644","0.0-183.0","5a69f41df10cdb0001b10329","5a69f41df10cdb0001b10329_20240207","","","","6","1","1714",""
"4485","0","html-button-response","184","1277641","0.0-184.0","5a69f41df10cdb0001b10329","5a69f41df10cdb0001b10329_20240207","","","","9","7","379",""
"6225","0","html-button-response","185","1284377","0.0-185.0","5a69f41df10cdb0001b10329","5a69f41df10cdb0001b10329_20240207","","","","5","5","2007",""
"3411","0","html-button-response","186","1288298","0.0-186.0","5a69f41df10cdb0001b10329","5a69f41df10cdb0001b10329_20240207","","","","5","3","296",""
"2944","0","html-button-response","187","1291758","0.0-187.0","5a69f41df10cdb0001b10329","5a69f41df10cdb0001b10329_20240207","","","","5","8","1886",""
"10097","0","html-button-response","188","1302366","0.0-188.0","5a69f41df10cdb0001b10329","5a69f41df10cdb0001b10329_20240207","","","","9","9","1201",""
"3250","0","html-button-response","189","1306129","0.0-189.0","5a69f41df10cdb0001b10329","5a69f41df10cdb0001b10329_20240207","","","","4","4","1689",""
"15441","0","html-button-response","190","1322082","0.0-190.0","5a69f41df10cdb0001b10329","5a69f41df10cdb0001b10329_20240207","","","","4","4","297",""
"3265","0","html-button-response","191","1325859","0.0-191.0","5a69f41df10cdb0001b10329","5a69f41df10cdb0001b10329_20240207","","","","4","3","2078",""
"3263","0","html-button-response","192","1329633","0.0-192.0","5a69f41df10cdb0001b10329","5a69f41df10cdb0001b10329_20240207","","","","7","4","722",""
"7814","0","html-button-response","193","1337958","0.0-193.0","5a69f41df10cdb0001b10329","5a69f41df10cdb0001b10329_20240207","","","","4","5","1466",""
"3523","0","html-button-response","194","1341991","0.0-194.0","5a69f41df10cdb0001b10329","5a69f41df10cdb0001b10329_20240207","","","","6","4","810",""
"2897","0","html-button-response","195","1345397","0.0-195.0","5a69f41df10cdb0001b10329","5a69f41df10cdb0001b10329_20240207","","","","6","4","822",""
"2483","0","html-button-response","196","1348389","0.0-196.0","5a69f41df10cdb0001b10329","5a69f41df10cdb0001b10329_20240207","","","","5","5","1310",""
"2148","0","html-button-response","197","1351045","0.0-197.0","5a69f41df10cdb0001b10329","5a69f41df10cdb0001b10329_20240207","","","","4","4","2028",""
"3332","0","html-button-response","198","1354886","0.0-198.0","5a69f41df10cdb0001b10329","5a69f41df10cdb0001b10329_20240207","","","","6","4","864",""
"3526","0","html-button-response","199","1358920","0.0-199.0","5a69f41df10cdb0001b10329","5a69f41df10cdb0001b10329_20240207","","","","3","3","668",""
"2819","0","html-button-response","200","1362251","0.0-200.0","5a69f41df10cdb0001b10329","5a69f41df10cdb0001b10329_20240207","","","","5","6","2146",""
"2883","0","html-button-response","201","1365647","0.0-201.0","5a69f41df10cdb0001b10329","5a69f41df10cdb0001b10329_20240207","","","","4","5","1511",""
"3664","0","html-button-response","202","1369817","0.0-202.0","5a69f41df10cdb0001b10329","5a69f41df10cdb0001b10329_20240207","","","","5","3","1049",""
"2902","0","html-button-response","203","1373227","0.0-203.0","5a69f41df10cdb0001b10329","5a69f41df10cdb0001b10329_20240207","","","","4","5","1674",""
"4516","0","html-button-response","204","1378251","0.0-204.0","5a69f41df10cdb0001b10329","5a69f41df10cdb0001b10329_20240207","","","","6","3","1724",""
"3460","0","html-button-response","205","1382220","0.0-205.0","5a69f41df10cdb0001b10329","5a69f41df10cdb0001b10329_20240207","","","","7","7","1736",""
"4868","0","html-button-response","206","1387598","0.0-206.0","5a69f41df10cdb0001b10329","5a69f41df10cdb0001b10329_20240207","","","","8","7","575",""
"3045","0","html-button-response","207","1391154","0.0-207.0","5a69f41df10cdb0001b10329","5a69f41df10cdb0001b10329_20240207","","","","5","5","1306",""
"4352","0","html-button-response","208","1396015","0.0-208.0","5a69f41df10cdb0001b10329","5a69f41df10cdb0001b10329_20240207","","","","9","9","522",""
"3924","0","html-button-response","209","1400448","0.0-209.0","5a69f41df10cdb0001b10329","5a69f41df10cdb0001b10329_20240207","","","","2","2","481",""
"3523","0","html-button-response","210","1404481","0.0-210.0","5a69f41df10cdb0001b10329","5a69f41df10cdb0001b10329_20240207","","","","5","5","2142",""
"5704","0","html-button-response","211","1410695","0.0-211.0","5a69f41df10cdb0001b10329","5a69f41df10cdb0001b10329_20240207","","","","8","2","133",""
"2831","0","html-button-response","212","1414035","0.0-212.0","5a69f41df10cdb0001b10329","5a69f41df10cdb0001b10329_20240207","","","","5","5","1669",""
"3221","0","html-button-response","213","1417764","0.0-213.0","5a69f41df10cdb0001b10329","5a69f41df10cdb0001b10329_20240207","","","","5","2","1884",""
"2819","0","html-button-response","214","1421092","0.0-214.0","5a69f41df10cdb0001b10329","5a69f41df10cdb0001b10329_20240207","","","","8","8","2068",""
"3109","0","html-button-response","215","1424713","0.0-215.0","5a69f41df10cdb0001b10329","5a69f41df10cdb0001b10329_20240207","","","","3","3","609",""
"4562","0","html-button-response","216","1429783","0.0-216.0","5a69f41df10cdb0001b10329","5a69f41df10cdb0001b10329_20240207","","","","5","4","2130",""
"10759","0","html-button-response","217","1441052","0.0-217.0","5a69f41df10cdb0001b10329","5a69f41df10cdb0001b10329_20240207","","","","4","5","1516",""
"3217","0","html-button-response","218","1444778","0.0-218.0","5a69f41df10cdb0001b10329","5a69f41df10cdb0001b10329_20240207","","","","5","3","1412",""
"6102","0","html-button-response","219","1451391","0.0-219.0","5a69f41df10cdb0001b10329","5a69f41df10cdb0001b10329_20240207","","","","7","3","306",""
"3328","0","html-button-response","220","1455227","0.0-220.0","5a69f41df10cdb0001b10329","5a69f41df10cdb0001b10329_20240207","","","","5","8","1717",""
"2835","0","html-button-response","221","1458573","0.0-221.0","5a69f41df10cdb0001b10329","5a69f41df10cdb0001b10329_20240207","","","","4","4","1519",""
"4559","0","html-button-response","222","1463642","0.0-222.0","5a69f41df10cdb0001b10329","5a69f41df10cdb0001b10329_20240207","","","","8","7","406",""
"3300","0","html-button-response","223","1467450","0.0-223.0","5a69f41df10cdb0001b10329","5a69f41df10cdb0001b10329_20240207","","","","5","5","774",""
"3971","0","html-button-response","224","1471933","0.0-224.0","5a69f41df10cdb0001b10329","5a69f41df10cdb0001b10329_20240207","","","","5","5","1643",""
"2992","0","html-button-response","225","1475432","0.0-225.0","5a69f41df10cdb0001b10329","5a69f41df10cdb0001b10329_20240207","","","Thank you. You have reached the end. 
                       <br>Click the button below to reveal your compensation.
                        <br><br>","","","","1545,1862,1808,952,402,1934,1569,2037,2054,1626,1238,977,935,231,341,577,1293,753,280,633,2039,70,2134,1216,2135,692,1088,1616,1413,2018,1302,40,518,13,974,471,1174,1392,1158,336,160,1532,1133,948,971,486,1203,246,235,696,1655,966,1796,1050,1983,1592,2121,1166,372,567,113,702,626,2016,606,926,998,797,1006,1283,122,1937,423,534,1332,757,1087,773,1896,719,732,1584,930,390,1504,674,427,1548,387,2174,204,1640,1623,1001,252,1520,1731,1436,1488,1702,1661,1570,1585,176,1483,452,915,1745,162,964,854,145,838,458,91,1498,1598,1373,508,338,808,1477,1990,460,1930,1561,1690,2193,1887,2022,234,1357,1510,1354,939,843,1685,1732,713,999,360,380,656,414,259,569,136,1034,1265,883,1225,610,1651,20,499,1340,180,887,1000,254,1389,410,357,2191,675,215,1455,943,137,896,220,734,1422,1101,1424,154,662,493,1714,379,2007,296,1886,1201,1689,297,2078,722,1466,810,822,1310,2028,864,668,2146,1511,1049,1674,1724,1736,575,1306,522,481,2142,133,1669,1884,2068,609,2130,1516,1412,306,1717,1519,406,774,1643"
