"rt","response","trial_type","trial_index","time_elapsed","internal_node_id","part_ID","ID_DATE","screen_id","understand_correct","stimulus","arousal","valence","img_id","tested_trial_idx"
"2307","0","html-button-response","0","2308","0.0-0.0","6341b868a41dcb8f252c509a","6341b868a41dcb8f252c509a_20240207","","","","","","",""
"13736","[object Object]","survey-html-form","1","16547","0.0-1.0","6341b868a41dcb8f252c509a","6341b868a41dcb8f252c509a_20240207","prolific_id_page","","","","","",""
"1484065","0","html-button-response","2","1500717","0.0-2.0","6341b868a41dcb8f252c509a","6341b868a41dcb8f252c509a_20240207","","","","","","",""
"34698","0","html-button-response","3","1535921","0.0-3.0-0.0","6341b868a41dcb8f252c509a","6341b868a41dcb8f252c509a_20240207","","false","","","","",""
"22110","0","html-button-response","4","1559490","0.0-3.1-0.1","6341b868a41dcb8f252c509a","6341b868a41dcb8f252c509a_20240207","","true","","","","",""
"1427","0","html-button-response","5","1561422","0.0-4.0","6341b868a41dcb8f252c509a","6341b868a41dcb8f252c509a_20240207","","","
<div>
Great! You will now go on to rate the faces.
<br><br>
</div>
","","","",""
"6685","0","html-button-response","6","1568622","0.0-5.0","6341b868a41dcb8f252c509a","6341b868a41dcb8f252c509a_20240207","","","","7","2","855",""
"4162","0","html-button-response","7","1573286","0.0-6.0","6341b868a41dcb8f252c509a","6341b868a41dcb8f252c509a_20240207","","","","6","2","1259",""
"4686","0","html-button-response","8","1578478","0.0-7.0","6341b868a41dcb8f252c509a","6341b868a41dcb8f252c509a_20240207","","","","3","7","1139",""
"4958","0","html-button-response","9","1583937","0.0-8.0","6341b868a41dcb8f252c509a","6341b868a41dcb8f252c509a_20240207","","","","4","7","999",""
"3419","0","html-button-response","10","1587861","0.0-9.0","6341b868a41dcb8f252c509a","6341b868a41dcb8f252c509a_20240207","","","","6","9","1226",""
"3227","0","html-button-response","11","1591593","0.0-10.0","6341b868a41dcb8f252c509a","6341b868a41dcb8f252c509a_20240207","","","","4","5","1514",""
"1902","0","html-button-response","12","1594011","0.0-11.0","6341b868a41dcb8f252c509a","6341b868a41dcb8f252c509a_20240207","","","","4","6","620",""
"2829","0","html-button-response","13","1597343","0.0-12.0","6341b868a41dcb8f252c509a","6341b868a41dcb8f252c509a_20240207","","","","3","5","1152",""
"3738","0","html-button-response","14","1601595","0.0-13.0","6341b868a41dcb8f252c509a","6341b868a41dcb8f252c509a_20240207","","","","9","4","705",""
"2035","0","html-button-response","15","1604143","0.0-14.0","6341b868a41dcb8f252c509a","6341b868a41dcb8f252c509a_20240207","","","","9","4","890",""
"4287","0","html-button-response","16","1608941","0.0-15.0","6341b868a41dcb8f252c509a","6341b868a41dcb8f252c509a_20240207","","","","4","4","1332",""
"2711","0","html-button-response","17","1612159","0.0-16.0","6341b868a41dcb8f252c509a","6341b868a41dcb8f252c509a_20240207","","","","4","7","1290",""
"2006","0","html-button-response","18","1614671","0.0-17.0","6341b868a41dcb8f252c509a","6341b868a41dcb8f252c509a_20240207","","","","4","5","1321",""
"2162","0","html-button-response","19","1617334","0.0-18.0","6341b868a41dcb8f252c509a","6341b868a41dcb8f252c509a_20240207","","","","4","5","1318",""
"3543","0","html-button-response","20","1621384","0.0-19.0","6341b868a41dcb8f252c509a","6341b868a41dcb8f252c509a_20240207","","","","6","3","2090",""
"3215","0","html-button-response","21","1625110","0.0-20.0","6341b868a41dcb8f252c509a","6341b868a41dcb8f252c509a_20240207","","","","9","4","356",""
"2414","0","html-button-response","22","1628036","0.0-21.0","6341b868a41dcb8f252c509a","6341b868a41dcb8f252c509a_20240207","","","","8","3","361",""
"3166","0","html-button-response","23","1631706","0.0-22.0","6341b868a41dcb8f252c509a","6341b868a41dcb8f252c509a_20240207","","","","7","5","425",""
"2177","0","html-button-response","24","1634392","0.0-23.0","6341b868a41dcb8f252c509a","6341b868a41dcb8f252c509a_20240207","","","","8","8","2094",""
"3687","0","html-button-response","25","1638580","0.0-24.0","6341b868a41dcb8f252c509a","6341b868a41dcb8f252c509a_20240207","","","","5","3","791",""
"2648","0","html-button-response","26","1641736","0.0-25.0","6341b868a41dcb8f252c509a","6341b868a41dcb8f252c509a_20240207","","","","5","5","497",""
"2643","0","html-button-response","27","1644895","0.0-26.0","6341b868a41dcb8f252c509a","6341b868a41dcb8f252c509a_20240207","","","","6","2","1021",""
"1787","0","html-button-response","28","1647189","0.0-27.0","6341b868a41dcb8f252c509a","6341b868a41dcb8f252c509a_20240207","","","","6","2","892",""
"2724","0","html-button-response","29","1650423","0.0-28.0","6341b868a41dcb8f252c509a","6341b868a41dcb8f252c509a_20240207","","","","5","4","970",""
"2418","0","html-button-response","30","1653345","0.0-29.0","6341b868a41dcb8f252c509a","6341b868a41dcb8f252c509a_20240207","","","","5","3","1352",""
"2546","0","html-button-response","31","1656401","0.0-30.0","6341b868a41dcb8f252c509a","6341b868a41dcb8f252c509a_20240207","","","","8","2","1221",""
"1853","0","html-button-response","32","1658758","0.0-31.0","6341b868a41dcb8f252c509a","6341b868a41dcb8f252c509a_20240207","","","","7","3","234",""
"3002","0","html-button-response","33","1662266","0.0-32.0","6341b868a41dcb8f252c509a","6341b868a41dcb8f252c509a_20240207","","","","5","5","1336",""
"2236","0","html-button-response","34","1665004","0.0-33.0","6341b868a41dcb8f252c509a","6341b868a41dcb8f252c509a_20240207","","","","5","6","799",""
"1866","0","html-button-response","35","1667386","0.0-34.0","6341b868a41dcb8f252c509a","6341b868a41dcb8f252c509a_20240207","","","","6","2","1555",""
"42774","0","html-button-response","36","1710665","0.0-35.0","6341b868a41dcb8f252c509a","6341b868a41dcb8f252c509a_20240207","","","","8","7","1397",""
"4859","0","html-button-response","37","1716037","0.0-36.0","6341b868a41dcb8f252c509a","6341b868a41dcb8f252c509a_20240207","","","","6","5","78",""
"3109","0","html-button-response","38","1719666","0.0-37.0","6341b868a41dcb8f252c509a","6341b868a41dcb8f252c509a_20240207","","","","8","5","148",""
"1872","0","html-button-response","39","1722050","0.0-38.0","6341b868a41dcb8f252c509a","6341b868a41dcb8f252c509a_20240207","","","","5","5","2193",""
"3004","0","html-button-response","40","1725558","0.0-39.0","6341b868a41dcb8f252c509a","6341b868a41dcb8f252c509a_20240207","","","","8","7","2085",""
"2585","0","html-button-response","41","1728657","0.0-40.0","6341b868a41dcb8f252c509a","6341b868a41dcb8f252c509a_20240207","","","","6","2","571",""
"3342","0","html-button-response","42","1732505","0.0-41.0","6341b868a41dcb8f252c509a","6341b868a41dcb8f252c509a_20240207","","","","5","4","1814",""
"2277","0","html-button-response","43","1735289","0.0-42.0","6341b868a41dcb8f252c509a","6341b868a41dcb8f252c509a_20240207","","","","7","8","2109",""
"2316","0","html-button-response","44","1738107","0.0-43.0","6341b868a41dcb8f252c509a","6341b868a41dcb8f252c509a_20240207","","","","6","6","1813",""
"1951","0","html-button-response","45","1740565","0.0-44.0","6341b868a41dcb8f252c509a","6341b868a41dcb8f252c509a_20240207","","","","5","5","1788",""
"1971","0","html-button-response","46","1743045","0.0-45.0","6341b868a41dcb8f252c509a","6341b868a41dcb8f252c509a_20240207","","","","6","2","558",""
"2342","0","html-button-response","47","1745888","0.0-46.0","6341b868a41dcb8f252c509a","6341b868a41dcb8f252c509a_20240207","","","","8","4","722",""
"2126","0","html-button-response","48","1748521","0.0-47.0","6341b868a41dcb8f252c509a","6341b868a41dcb8f252c509a_20240207","","","","7","2","1907",""
"2101","0","html-button-response","49","1751136","0.0-48.0","6341b868a41dcb8f252c509a","6341b868a41dcb8f252c509a_20240207","","","","6","6","1797",""
"3605","0","html-button-response","50","1755254","0.0-49.0","6341b868a41dcb8f252c509a","6341b868a41dcb8f252c509a_20240207","","","","8","2","1066",""
"2966","0","html-button-response","51","1758722","0.0-50.0","6341b868a41dcb8f252c509a","6341b868a41dcb8f252c509a_20240207","","","","9","5","133",""
"2142","0","html-button-response","52","1761368","0.0-51.0","6341b868a41dcb8f252c509a","6341b868a41dcb8f252c509a_20240207","","","","8","4","126",""
"2312","0","html-button-response","53","1764192","0.0-52.0","6341b868a41dcb8f252c509a","6341b868a41dcb8f252c509a_20240207","","","","5","5","636",""
"2334","0","html-button-response","54","1767034","0.0-53.0","6341b868a41dcb8f252c509a","6341b868a41dcb8f252c509a_20240207","","","","5","5","1647",""
"5738","0","html-button-response","55","1773275","0.0-54.0","6341b868a41dcb8f252c509a","6341b868a41dcb8f252c509a_20240207","","","","7","4","809",""
"3101","0","html-button-response","56","1776877","0.0-55.0","6341b868a41dcb8f252c509a","6341b868a41dcb8f252c509a_20240207","","","","4","4","1674",""
"2179","0","html-button-response","57","1779576","0.0-56.0","6341b868a41dcb8f252c509a","6341b868a41dcb8f252c509a_20240207","","","","4","3","427",""
"3734","0","html-button-response","58","1783826","0.0-57.0","6341b868a41dcb8f252c509a","6341b868a41dcb8f252c509a_20240207","","","","5","3","1987",""
"3055","0","html-button-response","59","1787392","0.0-58.0","6341b868a41dcb8f252c509a","6341b868a41dcb8f252c509a_20240207","","","","7","2","1780",""
"2201","0","html-button-response","60","1790103","0.0-59.0","6341b868a41dcb8f252c509a","6341b868a41dcb8f252c509a_20240207","","","","7","8","1589",""
"2641","0","html-button-response","61","1793248","0.0-60.0","6341b868a41dcb8f252c509a","6341b868a41dcb8f252c509a_20240207","","","","7","1","1726",""
"1795","0","html-button-response","62","1795553","0.0-61.0","6341b868a41dcb8f252c509a","6341b868a41dcb8f252c509a_20240207","","","","8","1","1727",""
"2161","0","html-button-response","63","1798225","0.0-62.0","6341b868a41dcb8f252c509a","6341b868a41dcb8f252c509a_20240207","","","","7","4","723",""
"1990","0","html-button-response","64","1800727","0.0-63.0","6341b868a41dcb8f252c509a","6341b868a41dcb8f252c509a_20240207","","","","6","5","915",""
"2233","0","html-button-response","65","1803473","0.0-64.0","6341b868a41dcb8f252c509a","6341b868a41dcb8f252c509a_20240207","","","","9","4","92",""
"2242","0","html-button-response","66","1806217","0.0-65.0","6341b868a41dcb8f252c509a","6341b868a41dcb8f252c509a_20240207","","","","8","2","1924",""
"3131","0","html-button-response","67","1809851","0.0-66.0","6341b868a41dcb8f252c509a","6341b868a41dcb8f252c509a_20240207","","","","6","7","1784",""
"3380","0","html-button-response","68","1813734","0.0-67.0","6341b868a41dcb8f252c509a","6341b868a41dcb8f252c509a_20240207","","","","4","4","1660",""
"2042","0","html-button-response","69","1816286","0.0-68.0","6341b868a41dcb8f252c509a","6341b868a41dcb8f252c509a_20240207","","","","6","7","1410",""
"1893","0","html-button-response","70","1818692","0.0-69.0","6341b868a41dcb8f252c509a","6341b868a41dcb8f252c509a_20240207","","","","8","8","1018",""
"3287","0","html-button-response","71","1822488","0.0-70.0","6341b868a41dcb8f252c509a","6341b868a41dcb8f252c509a_20240207","","","","5","3","1453",""
"2086","0","html-button-response","72","1825090","0.0-71.0","6341b868a41dcb8f252c509a","6341b868a41dcb8f252c509a_20240207","","","","6","2","1495",""
"1944","0","html-button-response","73","1827542","0.0-72.0","6341b868a41dcb8f252c509a","6341b868a41dcb8f252c509a_20240207","","","","5","5","1646",""
"2322","0","html-button-response","74","1830366","0.0-73.0","6341b868a41dcb8f252c509a","6341b868a41dcb8f252c509a_20240207","","","","5","4","1126",""
"2433","0","html-button-response","75","1833311","0.0-74.0","6341b868a41dcb8f252c509a","6341b868a41dcb8f252c509a_20240207","","","","7","6","521",""
"2060","0","html-button-response","76","1835876","0.0-75.0","6341b868a41dcb8f252c509a","6341b868a41dcb8f252c509a_20240207","","","","8","5","538",""
"1982","0","html-button-response","77","1838367","0.0-76.0","6341b868a41dcb8f252c509a","6341b868a41dcb8f252c509a_20240207","","","","8","8","1914",""
"1775","0","html-button-response","78","1840644","0.0-77.0","6341b868a41dcb8f252c509a","6341b868a41dcb8f252c509a_20240207","","","","8","4","41",""
"1732","0","html-button-response","79","1842886","0.0-78.0","6341b868a41dcb8f252c509a","6341b868a41dcb8f252c509a_20240207","","","","8","1","1235",""
"2281","0","html-button-response","80","1845674","0.0-79.0","6341b868a41dcb8f252c509a","6341b868a41dcb8f252c509a_20240207","","","","5","4","2192",""
"2140","0","html-button-response","81","1848318","0.0-80.0","6341b868a41dcb8f252c509a","6341b868a41dcb8f252c509a_20240207","","","","7","2","2053",""
"3324","0","html-button-response","82","1852158","0.0-81.0","6341b868a41dcb8f252c509a","6341b868a41dcb8f252c509a_20240207","","","","7","4","568",""
"4693","0","html-button-response","83","1857362","0.0-82.0","6341b868a41dcb8f252c509a","6341b868a41dcb8f252c509a_20240207","","","","3","5","815",""
"3150","0","html-button-response","84","1861027","0.0-83.0","6341b868a41dcb8f252c509a","6341b868a41dcb8f252c509a_20240207","","","","3","3","637",""
"2186","0","html-button-response","85","1863715","0.0-84.0","6341b868a41dcb8f252c509a","6341b868a41dcb8f252c509a_20240207","","","","5","5","1471",""
"2455","0","html-button-response","86","1866673","0.0-85.0","6341b868a41dcb8f252c509a","6341b868a41dcb8f252c509a_20240207","","","","7","2","1469",""
"3119","0","html-button-response","87","1870303","0.0-86.0","6341b868a41dcb8f252c509a","6341b868a41dcb8f252c509a_20240207","","","","5","3","1256",""
"2678","0","html-button-response","88","1873491","0.0-87.0","6341b868a41dcb8f252c509a","6341b868a41dcb8f252c509a_20240207","","","","6","7","925",""
"2666","0","html-button-response","89","1876661","0.0-88.0","6341b868a41dcb8f252c509a","6341b868a41dcb8f252c509a_20240207","","","","8","8","1965",""
"1716","0","html-button-response","90","1878883","0.0-89.0","6341b868a41dcb8f252c509a","6341b868a41dcb8f252c509a_20240207","","","","8","8","1862",""
"1775","0","html-button-response","91","1881168","0.0-90.0","6341b868a41dcb8f252c509a","6341b868a41dcb8f252c509a_20240207","","","","5","5","789",""
"3896","0","html-button-response","92","1885572","0.0-91.0","6341b868a41dcb8f252c509a","6341b868a41dcb8f252c509a_20240207","","","","6","5","1993",""
"3098","0","html-button-response","93","1889180","0.0-92.0","6341b868a41dcb8f252c509a","6341b868a41dcb8f252c509a_20240207","","","","7","4","797",""
"2057","0","html-button-response","94","1891752","0.0-93.0","6341b868a41dcb8f252c509a","6341b868a41dcb8f252c509a_20240207","","","","8","8","873",""
"3854","0","html-button-response","95","1896112","0.0-94.0","6341b868a41dcb8f252c509a","6341b868a41dcb8f252c509a_20240207","","","","8","1","949",""
"3893","0","html-button-response","96","1900517","0.0-95.0","6341b868a41dcb8f252c509a","6341b868a41dcb8f252c509a_20240207","","","","7","5","445",""
"3788","0","html-button-response","97","1904807","0.0-96.0","6341b868a41dcb8f252c509a","6341b868a41dcb8f252c509a_20240207","","","","6","3","154",""
"4826","0","html-button-response","98","1910135","0.0-97.0","6341b868a41dcb8f252c509a","6341b868a41dcb8f252c509a_20240207","","","","8","5","447",""
"1923","0","html-button-response","99","1912559","0.0-98.0","6341b868a41dcb8f252c509a","6341b868a41dcb8f252c509a_20240207","","","","8","6","721",""
"2272","0","html-button-response","100","1915339","0.0-99.0","6341b868a41dcb8f252c509a","6341b868a41dcb8f252c509a_20240207","","","","8","2","1923",""
"2688","0","html-button-response","101","1918534","0.0-100.0","6341b868a41dcb8f252c509a","6341b868a41dcb8f252c509a_20240207","","","","9","1","1714",""
"1897","0","html-button-response","102","1920932","0.0-101.0","6341b868a41dcb8f252c509a","6341b868a41dcb8f252c509a_20240207","","","","7","2","1805",""
"3210","0","html-button-response","103","1924652","0.0-102.0","6341b868a41dcb8f252c509a","6341b868a41dcb8f252c509a_20240207","","","","5","4","1141",""
"2555","0","html-button-response","104","1927714","0.0-103.0","6341b868a41dcb8f252c509a","6341b868a41dcb8f252c509a_20240207","","","","7","1","1400",""
"1835","0","html-button-response","105","1930052","0.0-104.0","6341b868a41dcb8f252c509a","6341b868a41dcb8f252c509a_20240207","","","","6","5","1304",""
"2159","0","html-button-response","106","1932716","0.0-105.0","6341b868a41dcb8f252c509a","6341b868a41dcb8f252c509a_20240207","","","","9","1","520",""
"2061","0","html-button-response","107","1935278","0.0-106.0","6341b868a41dcb8f252c509a","6341b868a41dcb8f252c509a_20240207","","","","7","2","1920",""
"2635","0","html-button-response","108","1938415","0.0-107.0","6341b868a41dcb8f252c509a","6341b868a41dcb8f252c509a_20240207","","","","6","5","1892",""
"1898","0","html-button-response","109","1940829","0.0-108.0","6341b868a41dcb8f252c509a","6341b868a41dcb8f252c509a_20240207","","","","5","5","979",""
"1840","0","html-button-response","110","1943175","0.0-109.0","6341b868a41dcb8f252c509a","6341b868a41dcb8f252c509a_20240207","","","","6","6","398",""
"1814","0","html-button-response","111","1945505","0.0-110.0","6341b868a41dcb8f252c509a","6341b868a41dcb8f252c509a_20240207","","","","7","2","1544",""
"2699","0","html-button-response","112","1948713","0.0-111.0","6341b868a41dcb8f252c509a","6341b868a41dcb8f252c509a_20240207","","","","8","8","1236",""
"2080","0","html-button-response","113","1951301","0.0-112.0","6341b868a41dcb8f252c509a","6341b868a41dcb8f252c509a_20240207","","","","7","1","1948",""
"2095","0","html-button-response","114","1953897","0.0-113.0","6341b868a41dcb8f252c509a","6341b868a41dcb8f252c509a_20240207","","","","7","5","782",""
"1687","0","html-button-response","115","1956085","0.0-114.0","6341b868a41dcb8f252c509a","6341b868a41dcb8f252c509a_20240207","","","","5","5","1970",""
"1775","0","html-button-response","116","1958369","0.0-115.0","6341b868a41dcb8f252c509a","6341b868a41dcb8f252c509a_20240207","","","","7","2","1063",""
"2533","0","html-button-response","117","1961413","0.0-116.0","6341b868a41dcb8f252c509a","6341b868a41dcb8f252c509a_20240207","","","","9","3","346",""
"2294","0","html-button-response","118","1964213","0.0-117.0","6341b868a41dcb8f252c509a","6341b868a41dcb8f252c509a_20240207","","","","5","4","1151",""
"3007","0","html-button-response","119","1967735","0.0-118.0","6341b868a41dcb8f252c509a","6341b868a41dcb8f252c509a_20240207","","","","8","3","107",""
"1765","0","html-button-response","120","1970009","0.0-119.0","6341b868a41dcb8f252c509a","6341b868a41dcb8f252c509a_20240207","","","","8","2","1898",""
"3588","0","html-button-response","121","1974101","0.0-120.0","6341b868a41dcb8f252c509a","6341b868a41dcb8f252c509a_20240207","","","","6","4","775",""
"1912","0","html-button-response","122","1976528","0.0-121.0","6341b868a41dcb8f252c509a","6341b868a41dcb8f252c509a_20240207","","","","8","4","16",""
"1864","0","html-button-response","123","1978906","0.0-122.0","6341b868a41dcb8f252c509a","6341b868a41dcb8f252c509a_20240207","","","","5","5","1496",""
"2882","0","html-button-response","124","1982304","0.0-123.0","6341b868a41dcb8f252c509a","6341b868a41dcb8f252c509a_20240207","","","","6","6","1096",""
"3171","0","html-button-response","125","1985982","0.0-124.0","6341b868a41dcb8f252c509a","6341b868a41dcb8f252c509a_20240207","","","","7","4","242",""
"8566","0","html-button-response","126","1995058","0.0-125.0","6341b868a41dcb8f252c509a","6341b868a41dcb8f252c509a_20240207","","","","8","3","696",""
"31695","0","html-button-response","127","2027268","0.0-126.0","6341b868a41dcb8f252c509a","6341b868a41dcb8f252c509a_20240207","","","","6","6","1132",""
"1606","0","html-button-response","128","2029378","0.0-127.0","6341b868a41dcb8f252c509a","6341b868a41dcb8f252c509a_20240207","","","","7","7","1722",""
"1913","0","html-button-response","129","2031800","0.0-128.0","6341b868a41dcb8f252c509a","6341b868a41dcb8f252c509a_20240207","","","","6","6","1617",""
"1939","0","html-button-response","130","2034242","0.0-129.0","6341b868a41dcb8f252c509a","6341b868a41dcb8f252c509a_20240207","","","","6","2","1090",""
"6384","0","html-button-response","131","2041139","0.0-130.0","6341b868a41dcb8f252c509a","6341b868a41dcb8f252c509a_20240207","","","","9","6","755",""
"2213","0","html-button-response","132","2043857","0.0-131.0","6341b868a41dcb8f252c509a","6341b868a41dcb8f252c509a_20240207","","","","9","2","22",""
"1680","0","html-button-response","133","2046045","0.0-132.0","6341b868a41dcb8f252c509a","6341b868a41dcb8f252c509a_20240207","","","","8","2","1962",""
"2139","0","html-button-response","134","2048691","0.0-133.0","6341b868a41dcb8f252c509a","6341b868a41dcb8f252c509a_20240207","","","","8","5","84",""
"1797","0","html-button-response","135","2050997","0.0-134.0","6341b868a41dcb8f252c509a","6341b868a41dcb8f252c509a_20240207","","","","7","5","589",""
"1643","0","html-button-response","136","2053145","0.0-135.0","6341b868a41dcb8f252c509a","6341b868a41dcb8f252c509a_20240207","","","","6","3","1014",""
"1975","0","html-button-response","137","2055620","0.0-136.0","6341b868a41dcb8f252c509a","6341b868a41dcb8f252c509a_20240207","","","","8","2","1586",""
"1969","0","html-button-response","138","2058098","0.0-137.0","6341b868a41dcb8f252c509a","6341b868a41dcb8f252c509a_20240207","","","","6","8","1405",""
"2471","0","html-button-response","139","2061072","0.0-138.0","6341b868a41dcb8f252c509a","6341b868a41dcb8f252c509a_20240207","","","","6","5","281",""
"3069","0","html-button-response","140","2064650","0.0-139.0","6341b868a41dcb8f252c509a","6341b868a41dcb8f252c509a_20240207","","","","7","4","150",""
"1870","0","html-button-response","141","2067030","0.0-140.0","6341b868a41dcb8f252c509a","6341b868a41dcb8f252c509a_20240207","","","","7","2","1417",""
"3458","0","html-button-response","142","2070998","0.0-141.0","6341b868a41dcb8f252c509a","6341b868a41dcb8f252c509a_20240207","","","","5","3","1957",""
"2058","0","html-button-response","143","2073566","0.0-142.0","6341b868a41dcb8f252c509a","6341b868a41dcb8f252c509a_20240207","","","","5","5","1627",""
"1874","0","html-button-response","144","2075948","0.0-143.0","6341b868a41dcb8f252c509a","6341b868a41dcb8f252c509a_20240207","","","","6","8","1239",""
"1854","0","html-button-response","145","2078310","0.0-144.0","6341b868a41dcb8f252c509a","6341b868a41dcb8f252c509a_20240207","","","","5","6","1786",""
"1794","0","html-button-response","146","2080619","0.0-145.0","6341b868a41dcb8f252c509a","6341b868a41dcb8f252c509a_20240207","","","","7","5","250",""
"1691","0","html-button-response","147","2082817","0.0-146.0","6341b868a41dcb8f252c509a","6341b868a41dcb8f252c509a_20240207","","","","8","2","180",""
"2291","0","html-button-response","148","2085623","0.0-147.0","6341b868a41dcb8f252c509a","6341b868a41dcb8f252c509a_20240207","","","","8","8","1873",""
"3375","0","html-button-response","149","2089505","0.0-148.0","6341b868a41dcb8f252c509a","6341b868a41dcb8f252c509a_20240207","","","","4","4","1351",""
"2908","0","html-button-response","150","2092915","0.0-149.0","6341b868a41dcb8f252c509a","6341b868a41dcb8f252c509a_20240207","","","","3","4","996",""
"3112","0","html-button-response","151","2096541","0.0-150.0","6341b868a41dcb8f252c509a","6341b868a41dcb8f252c509a_20240207","","","","7","5","280",""
"2620","0","html-button-response","152","2099662","0.0-151.0","6341b868a41dcb8f252c509a","6341b868a41dcb8f252c509a_20240207","","","","7","1","1754",""
"1955","0","html-button-response","153","2102118","0.0-152.0","6341b868a41dcb8f252c509a","6341b868a41dcb8f252c509a_20240207","","","","7","4","483",""
"3630","0","html-button-response","154","2106252","0.0-153.0","6341b868a41dcb8f252c509a","6341b868a41dcb8f252c509a_20240207","","","","4","4","1852",""
"2478","0","html-button-response","155","2109238","0.0-154.0","6341b868a41dcb8f252c509a","6341b868a41dcb8f252c509a_20240207","","","","6","7","1771",""
"1799","0","html-button-response","156","2111548","0.0-155.0","6341b868a41dcb8f252c509a","6341b868a41dcb8f252c509a_20240207","","","","6","2","1947",""
"3750","0","html-button-response","157","2115810","0.0-156.0","6341b868a41dcb8f252c509a","6341b868a41dcb8f252c509a_20240207","","","","8","7","875",""
"2741","0","html-button-response","158","2119066","0.0-157.0","6341b868a41dcb8f252c509a","6341b868a41dcb8f252c509a_20240207","","","","6","7","1432",""
"3372","0","html-button-response","159","2122942","0.0-158.0","6341b868a41dcb8f252c509a","6341b868a41dcb8f252c509a_20240207","","","","4","3","1008",""
"2978","0","html-button-response","160","2126421","0.0-159.0","6341b868a41dcb8f252c509a","6341b868a41dcb8f252c509a_20240207","","","","8","9","1353",""
"2233","0","html-button-response","161","2129159","0.0-160.0","6341b868a41dcb8f252c509a","6341b868a41dcb8f252c509a_20240207","","","","8","3","12",""
"2839","0","html-button-response","162","2132503","0.0-161.0","6341b868a41dcb8f252c509a","6341b868a41dcb8f252c509a_20240207","","","","8","4","514",""
"2657","0","html-button-response","163","2135661","0.0-162.0","6341b868a41dcb8f252c509a","6341b868a41dcb8f252c509a_20240207","","","","3","4","1521",""
"1931","0","html-button-response","164","2138093","0.0-163.0","6341b868a41dcb8f252c509a","6341b868a41dcb8f252c509a_20240207","","","","7","2","701",""
"1907","0","html-button-response","165","2140511","0.0-164.0","6341b868a41dcb8f252c509a","6341b868a41dcb8f252c509a_20240207","","","","7","6","215",""
"1945","0","html-button-response","166","2142963","0.0-165.0","6341b868a41dcb8f252c509a","6341b868a41dcb8f252c509a_20240207","","","","7","5","50",""
"1849","0","html-button-response","167","2145320","0.0-166.0","6341b868a41dcb8f252c509a","6341b868a41dcb8f252c509a_20240207","","","","6","8","2097",""
"1702","0","html-button-response","168","2147533","0.0-167.0","6341b868a41dcb8f252c509a","6341b868a41dcb8f252c509a_20240207","","","","5","5","1464",""
"2408","0","html-button-response","169","2150443","0.0-168.0","6341b868a41dcb8f252c509a","6341b868a41dcb8f252c509a_20240207","","","","7","6","421",""
"2878","0","html-button-response","170","2153823","0.0-169.0","6341b868a41dcb8f252c509a","6341b868a41dcb8f252c509a_20240207","","","","5","2","932",""
"2548","0","html-button-response","171","2156873","0.0-170.0","6341b868a41dcb8f252c509a","6341b868a41dcb8f252c509a_20240207","","","","5","4","2088",""
"4026","0","html-button-response","172","2161401","0.0-171.0","6341b868a41dcb8f252c509a","6341b868a41dcb8f252c509a_20240207","","","","6","2","2091",""
"2089","0","html-button-response","173","2163993","0.0-172.0","6341b868a41dcb8f252c509a","6341b868a41dcb8f252c509a_20240207","","","","8","7","912",""
"1921","0","html-button-response","174","2166423","0.0-173.0","6341b868a41dcb8f252c509a","6341b868a41dcb8f252c509a_20240207","","","","9","5","252",""
"2575","0","html-button-response","175","2169503","0.0-174.0","6341b868a41dcb8f252c509a","6341b868a41dcb8f252c509a_20240207","","","","8","2","2041",""
"1685","0","html-button-response","176","2171691","0.0-175.0","6341b868a41dcb8f252c509a","6341b868a41dcb8f252c509a_20240207","","","","6","8","1889",""
"2540","0","html-button-response","177","2174738","0.0-176.0","6341b868a41dcb8f252c509a","6341b868a41dcb8f252c509a_20240207","","","","8","8","1068",""
"1730","0","html-button-response","178","2176976","0.0-177.0","6341b868a41dcb8f252c509a","6341b868a41dcb8f252c509a_20240207","","","","8","2","1389",""
"1784","0","html-button-response","179","2179266","0.0-178.0","6341b868a41dcb8f252c509a","6341b868a41dcb8f252c509a_20240207","","","","6","2","2118",""
"1915","0","html-button-response","180","2181696","0.0-179.0","6341b868a41dcb8f252c509a","6341b868a41dcb8f252c509a_20240207","","","","5","4","1519",""
"1842","0","html-button-response","181","2184042","0.0-180.0","6341b868a41dcb8f252c509a","6341b868a41dcb8f252c509a_20240207","","","","6","8","1392",""
"3332","0","html-button-response","182","2187878","0.0-181.0","6341b868a41dcb8f252c509a","6341b868a41dcb8f252c509a_20240207","","","","6","4","664",""
"2636","0","html-button-response","183","2191024","0.0-182.0","6341b868a41dcb8f252c509a","6341b868a41dcb8f252c509a_20240207","","","","6","7","1785",""
"2292","0","html-button-response","184","2193818","0.0-183.0","6341b868a41dcb8f252c509a","6341b868a41dcb8f252c509a_20240207","","","","7","8","1070",""
"2020","0","html-button-response","185","2196347","0.0-184.0","6341b868a41dcb8f252c509a","6341b868a41dcb8f252c509a_20240207","","","","7","5","211",""
"4447","0","html-button-response","186","2201305","0.0-185.0","6341b868a41dcb8f252c509a","6341b868a41dcb8f252c509a_20240207","","","","4","3","1844",""
"3184","0","html-button-response","187","2205009","0.0-186.0","6341b868a41dcb8f252c509a","6341b868a41dcb8f252c509a_20240207","","","","4","2","2157",""
"2710","0","html-button-response","188","2208221","0.0-187.0","6341b868a41dcb8f252c509a","6341b868a41dcb8f252c509a_20240207","","","","5","5","660",""
"1520","0","html-button-response","189","2210245","0.0-188.0","6341b868a41dcb8f252c509a","6341b868a41dcb8f252c509a_20240207","","","","6","7","263",""
"1909","0","html-button-response","190","2212655","0.0-189.0","6341b868a41dcb8f252c509a","6341b868a41dcb8f252c509a_20240207","","","","4","3","631",""
"1886","0","html-button-response","191","2215048","0.0-190.0","6341b868a41dcb8f252c509a","6341b868a41dcb8f252c509a_20240207","","","","7","8","2069",""
"1880","0","html-button-response","192","2217444","0.0-191.0","6341b868a41dcb8f252c509a","6341b868a41dcb8f252c509a_20240207","","","","8","7","354",""
"4524","0","html-button-response","193","2222482","0.0-192.0","6341b868a41dcb8f252c509a","6341b868a41dcb8f252c509a_20240207","","","","5","3","1843",""
"3000","0","html-button-response","194","2225988","0.0-193.0","6341b868a41dcb8f252c509a","6341b868a41dcb8f252c509a_20240207","","","","5","2","2077",""
"5288","0","html-button-response","195","2231786","0.0-194.0","6341b868a41dcb8f252c509a","6341b868a41dcb8f252c509a_20240207","","","","4","5","1515",""
"2601","0","html-button-response","196","2234889","0.0-195.0","6341b868a41dcb8f252c509a","6341b868a41dcb8f252c509a_20240207","","","","8","5","371",""
"2406","0","html-button-response","197","2237807","0.0-196.0","6341b868a41dcb8f252c509a","6341b868a41dcb8f252c509a_20240207","","","","7","6","950",""
"1725","0","html-button-response","198","2240043","0.0-197.0","6341b868a41dcb8f252c509a","6341b868a41dcb8f252c509a_20240207","","","","7","7","2110",""
"1582","0","html-button-response","199","2242138","0.0-198.0","6341b868a41dcb8f252c509a","6341b868a41dcb8f252c509a_20240207","","","","7","8","1250",""
"2733","0","html-button-response","200","2245379","0.0-199.0","6341b868a41dcb8f252c509a","6341b868a41dcb8f252c509a_20240207","","","","7","5","616",""
"2478","0","html-button-response","201","2248363","0.0-200.0","6341b868a41dcb8f252c509a","6341b868a41dcb8f252c509a_20240207","","","","6","7","1604",""
"1932","0","html-button-response","202","2250805","0.0-201.0","6341b868a41dcb8f252c509a","6341b868a41dcb8f252c509a_20240207","","","","4","5","2027",""
"2395","0","html-button-response","203","2253703","0.0-202.0","6341b868a41dcb8f252c509a","6341b868a41dcb8f252c509a_20240207","","","","5","5","1978",""
"1798","0","html-button-response","204","2256013","0.0-203.0","6341b868a41dcb8f252c509a","6341b868a41dcb8f252c509a_20240207","","","","5","5","1826",""
"1926","0","html-button-response","205","2258443","0.0-204.0","6341b868a41dcb8f252c509a","6341b868a41dcb8f252c509a_20240207","","","","6","2","517",""
"2987","0","html-button-response","206","2261932","0.0-205.0","6341b868a41dcb8f252c509a","6341b868a41dcb8f252c509a_20240207","","","","7","8","1198",""
"1789","0","html-button-response","207","2264230","0.0-206.0","6341b868a41dcb8f252c509a","6341b868a41dcb8f252c509a_20240207","","","","5","6","1652",""
"1758","0","html-button-response","208","2266498","0.0-207.0","6341b868a41dcb8f252c509a","6341b868a41dcb8f252c509a_20240207","","","","7","5","549",""
"2085","0","html-button-response","209","2269093","0.0-208.0","6341b868a41dcb8f252c509a","6341b868a41dcb8f252c509a_20240207","","","","7","2","1880",""
"2545","0","html-button-response","210","2272150","0.0-209.0","6341b868a41dcb8f252c509a","6341b868a41dcb8f252c509a_20240207","","","","4","2","634",""
"1728","0","html-button-response","211","2274389","0.0-210.0","6341b868a41dcb8f252c509a","6341b868a41dcb8f252c509a_20240207","","","","5","2","2065",""
"3776","0","html-button-response","212","2278675","0.0-211.0","6341b868a41dcb8f252c509a","6341b868a41dcb8f252c509a_20240207","","","","7","5","710",""
"2726","0","html-button-response","213","2281915","0.0-212.0","6341b868a41dcb8f252c509a","6341b868a41dcb8f252c509a_20240207","","","","4","4","2153",""
"2494","0","html-button-response","214","2284917","0.0-213.0","6341b868a41dcb8f252c509a","6341b868a41dcb8f252c509a_20240207","","","","7","5","614",""
"3695","0","html-button-response","215","2289119","0.0-214.0","6341b868a41dcb8f252c509a","6341b868a41dcb8f252c509a_20240207","","","","4","3","323",""
"2383","0","html-button-response","216","2292016","0.0-215.0","6341b868a41dcb8f252c509a","6341b868a41dcb8f252c509a_20240207","","","","6","6","794",""
"1646","0","html-button-response","217","2294168","0.0-216.0","6341b868a41dcb8f252c509a","6341b868a41dcb8f252c509a_20240207","","","","6","2","1570",""
"3287","0","html-button-response","218","2297968","0.0-217.0","6341b868a41dcb8f252c509a","6341b868a41dcb8f252c509a_20240207","","","","8","4","160",""
"2890","0","html-button-response","219","2301360","0.0-218.0","6341b868a41dcb8f252c509a","6341b868a41dcb8f252c509a_20240207","","","","8","2","1229",""
"2380","0","html-button-response","220","2304242","0.0-219.0","6341b868a41dcb8f252c509a","6341b868a41dcb8f252c509a_20240207","","","","6","6","2125",""
"2500","0","html-button-response","221","2307248","0.0-220.0","6341b868a41dcb8f252c509a","6341b868a41dcb8f252c509a_20240207","","","","6","4","64",""
"2413","0","html-button-response","222","2310174","0.0-221.0","6341b868a41dcb8f252c509a","6341b868a41dcb8f252c509a_20240207","","","","5","6","2161",""
"2350","0","html-button-response","223","2313029","0.0-222.0","6341b868a41dcb8f252c509a","6341b868a41dcb8f252c509a_20240207","","","","6","5","438",""
"2485","0","html-button-response","224","2316025","0.0-223.0","6341b868a41dcb8f252c509a","6341b868a41dcb8f252c509a_20240207","","","","4","3","334",""
"3081","0","html-button-response","225","2319617","0.0-224.0","6341b868a41dcb8f252c509a","6341b868a41dcb8f252c509a_20240207","","","","5","5","837",""
"1713","0","html-button-response","226","2321835","0.0-225.0","6341b868a41dcb8f252c509a","6341b868a41dcb8f252c509a_20240207","","","Thank you. You have reached the end. 
                       <br>Click the button below to reveal your compensation.
                        <br><br>","","","","855,1259,1139,999,1226,1514,620,1152,705,890,1332,1290,1321,1318,2090,356,361,425,2094,791,497,1021,892,970,1352,1221,234,1336,799,1555,1397,78,148,2193,2085,571,1814,2109,1813,1788,558,722,1907,1797,1066,133,126,636,1647,809,1674,427,1987,1780,1589,1726,1727,723,915,92,1924,1784,1660,1410,1018,1453,1495,1646,1126,521,538,1914,41,1235,2192,2053,568,815,637,1471,1469,1256,925,1965,1862,789,1993,797,873,949,445,154,447,721,1923,1714,1805,1141,1400,1304,520,1920,1892,979,398,1544,1236,1948,782,1970,1063,346,1151,107,1898,775,16,1496,1096,242,696,1132,1722,1617,1090,755,22,1962,84,589,1014,1586,1405,281,150,1417,1957,1627,1239,1786,250,180,1873,1351,996,280,1754,483,1852,1771,1947,875,1432,1008,1353,12,514,1521,701,215,50,2097,1464,421,932,2088,2091,912,252,2041,1889,1068,1389,2118,1519,1392,664,1785,1070,211,1844,2157,660,263,631,2069,354,1843,2077,1515,371,950,2110,1250,616,1604,2027,1978,1826,517,1198,1652,549,1880,634,2065,710,2153,614,323,794,1570,160,1229,2125,64,2161,438,334,837"
