"rt","response","trial_type","trial_index","time_elapsed","internal_node_id","part_ID","ID_DATE","screen_id","understand_correct","stimulus","arousal","valence","img_id","tested_trial_idx"
"28780","0","html-button-response","0","28783","0.0-0.0","655a308e3cc84dd3699ea93e","655a308e3cc84dd3699ea93e_20240207","","","","","","",""
"5767","[object Object]","survey-html-form","1","35055","0.0-1.0","655a308e3cc84dd3699ea93e","655a308e3cc84dd3699ea93e_20240207","prolific_id_page","","","","","",""
"11190","0","html-button-response","2","46248","0.0-2.0","655a308e3cc84dd3699ea93e","655a308e3cc84dd3699ea93e_20240207","","","","","","",""
"21660","0","html-button-response","3","68411","0.0-3.0-0.0","655a308e3cc84dd3699ea93e","655a308e3cc84dd3699ea93e_20240207","","true","","","","",""
"1365","0","html-button-response","4","70278","0.0-4.0","655a308e3cc84dd3699ea93e","655a308e3cc84dd3699ea93e_20240207","","","
<div>
Great! You will now go on to rate the faces.
<br><br>
</div>
","","","",""
"2514","0","html-button-response","5","73294","0.0-5.0","655a308e3cc84dd3699ea93e","655a308e3cc84dd3699ea93e_20240207","","","","5","1","1232",""
"2479","0","html-button-response","6","76275","0.0-6.0","655a308e3cc84dd3699ea93e","655a308e3cc84dd3699ea93e_20240207","","","","5","1","1859",""
"3282","0","html-button-response","7","80060","0.0-7.0","655a308e3cc84dd3699ea93e","655a308e3cc84dd3699ea93e_20240207","","","","5","9","56",""
"2115","0","html-button-response","8","82679","0.0-8.0","655a308e3cc84dd3699ea93e","655a308e3cc84dd3699ea93e_20240207","","","","5","1","1702",""
"2614","0","html-button-response","9","85809","0.0-9.0","655a308e3cc84dd3699ea93e","655a308e3cc84dd3699ea93e_20240207","","","","5","1","90",""
"3402","0","html-button-response","10","89713","0.0-10.0","655a308e3cc84dd3699ea93e","655a308e3cc84dd3699ea93e_20240207","","","","5","1","1573",""
"3299","0","html-button-response","11","93515","0.0-11.0","655a308e3cc84dd3699ea93e","655a308e3cc84dd3699ea93e_20240207","","","","1","5","1284",""
"3041","0","html-button-response","12","97058","0.0-12.0","655a308e3cc84dd3699ea93e","655a308e3cc84dd3699ea93e_20240207","","","","5","1","913",""
"3012","0","html-button-response","13","100574","0.0-13.0","655a308e3cc84dd3699ea93e","655a308e3cc84dd3699ea93e_20240207","","","","5","9","1396",""
"3173","0","html-button-response","14","104249","0.0-14.0","655a308e3cc84dd3699ea93e","655a308e3cc84dd3699ea93e_20240207","","","","5","5","1322",""
"1834","0","html-button-response","15","106587","0.0-15.0","655a308e3cc84dd3699ea93e","655a308e3cc84dd3699ea93e_20240207","","","","5","5","1657",""
"4123","0","html-button-response","16","111212","0.0-16.0","655a308e3cc84dd3699ea93e","655a308e3cc84dd3699ea93e_20240207","","","","5","9","1575",""
"3012","0","html-button-response","17","114727","0.0-17.0","655a308e3cc84dd3699ea93e","655a308e3cc84dd3699ea93e_20240207","","","","5","1","884",""
"3016","0","html-button-response","18","118246","0.0-18.0","655a308e3cc84dd3699ea93e","655a308e3cc84dd3699ea93e_20240207","","","","5","5","1856",""
"2570","0","html-button-response","19","121319","0.0-19.0","655a308e3cc84dd3699ea93e","655a308e3cc84dd3699ea93e_20240207","","","","5","1","283",""
"2998","0","html-button-response","20","124819","0.0-20.0","655a308e3cc84dd3699ea93e","655a308e3cc84dd3699ea93e_20240207","","","","5","1","887",""
"3110","0","html-button-response","21","128431","0.0-21.0","655a308e3cc84dd3699ea93e","655a308e3cc84dd3699ea93e_20240207","","","","5","5","2117",""
"2518","0","html-button-response","22","131451","0.0-22.0","655a308e3cc84dd3699ea93e","655a308e3cc84dd3699ea93e_20240207","","","","5","1","1024",""
"2404","0","html-button-response","23","134356","0.0-23.0","655a308e3cc84dd3699ea93e","655a308e3cc84dd3699ea93e_20240207","","","","5","9","1875",""
"2559","0","html-button-response","24","137422","0.0-24.0","655a308e3cc84dd3699ea93e","655a308e3cc84dd3699ea93e_20240207","","","","5","1","673",""
"2857","0","html-button-response","25","140781","0.0-25.0","655a308e3cc84dd3699ea93e","655a308e3cc84dd3699ea93e_20240207","","","","5","5","953",""
"2659","0","html-button-response","26","143941","0.0-26.0","655a308e3cc84dd3699ea93e","655a308e3cc84dd3699ea93e_20240207","","","","5","1","1794",""
"2847","0","html-button-response","27","147290","0.0-27.0","655a308e3cc84dd3699ea93e","655a308e3cc84dd3699ea93e_20240207","","","","1","1","178",""
"4822","0","html-button-response","28","152615","0.0-28.0","655a308e3cc84dd3699ea93e","655a308e3cc84dd3699ea93e_20240207","","","","9","5","561",""
"2921","0","html-button-response","29","156038","0.0-29.0","655a308e3cc84dd3699ea93e","655a308e3cc84dd3699ea93e_20240207","","","","5","1","727",""
"2852","0","html-button-response","30","159393","0.0-30.0","655a308e3cc84dd3699ea93e","655a308e3cc84dd3699ea93e_20240207","","","","5","5","1121",""
"2180","0","html-button-response","31","162075","0.0-31.0","655a308e3cc84dd3699ea93e","655a308e3cc84dd3699ea93e_20240207","","","","5","5","1515",""
"2749","0","html-button-response","32","165327","0.0-32.0","655a308e3cc84dd3699ea93e","655a308e3cc84dd3699ea93e_20240207","","","","5","1","1220",""
"2220","0","html-button-response","33","168050","0.0-33.0","655a308e3cc84dd3699ea93e","655a308e3cc84dd3699ea93e_20240207","","","","5","1","1079",""
"2477","0","html-button-response","34","171030","0.0-34.0","655a308e3cc84dd3699ea93e","655a308e3cc84dd3699ea93e_20240207","","","","5","1","516",""
"3978","0","html-button-response","35","175510","0.0-35.0","655a308e3cc84dd3699ea93e","655a308e3cc84dd3699ea93e_20240207","","","","5","5","2014",""
"2497","0","html-button-response","36","178512","0.0-36.0","655a308e3cc84dd3699ea93e","655a308e3cc84dd3699ea93e_20240207","","","","5","9","1964",""
"2533","0","html-button-response","37","181547","0.0-37.0","655a308e3cc84dd3699ea93e","655a308e3cc84dd3699ea93e_20240207","","","","5","5","1458",""
"2347","0","html-button-response","38","184396","0.0-38.0","655a308e3cc84dd3699ea93e","655a308e3cc84dd3699ea93e_20240207","","","","5","1","104",""
"2729","0","html-button-response","39","187626","0.0-39.0","655a308e3cc84dd3699ea93e","655a308e3cc84dd3699ea93e_20240207","","","","5","9","1939",""
"2360","0","html-button-response","40","190487","0.0-40.0","655a308e3cc84dd3699ea93e","655a308e3cc84dd3699ea93e_20240207","","","","5","1","883",""
"2266","0","html-button-response","41","193254","0.0-41.0","655a308e3cc84dd3699ea93e","655a308e3cc84dd3699ea93e_20240207","","","","5","5","835",""
"12533","0","html-button-response","42","206288","0.0-42.0","655a308e3cc84dd3699ea93e","655a308e3cc84dd3699ea93e_20240207","","","","5","1","403",""
"5429","0","html-button-response","43","212221","0.0-43.0","655a308e3cc84dd3699ea93e","655a308e3cc84dd3699ea93e_20240207","","","","5","5","1665",""
"2133","0","html-button-response","44","214857","0.0-44.0","655a308e3cc84dd3699ea93e","655a308e3cc84dd3699ea93e_20240207","","","","5","9","1563",""
"5631","0","html-button-response","45","220990","0.0-45.0","655a308e3cc84dd3699ea93e","655a308e3cc84dd3699ea93e_20240207","","","","5","5","144",""
"2069","0","html-button-response","46","223563","0.0-46.0","655a308e3cc84dd3699ea93e","655a308e3cc84dd3699ea93e_20240207","","","","5","5","1838",""
"4982","0","html-button-response","47","229048","0.0-47.0","655a308e3cc84dd3699ea93e","655a308e3cc84dd3699ea93e_20240207","","","","5","9","768",""
"1955","0","html-button-response","48","231505","0.0-48.0","655a308e3cc84dd3699ea93e","655a308e3cc84dd3699ea93e_20240207","","","","5","5","2196",""
"2446","0","html-button-response","49","234452","0.0-49.0","655a308e3cc84dd3699ea93e","655a308e3cc84dd3699ea93e_20240207","","","","5","1","987",""
"3815","0","html-button-response","50","238772","0.0-50.0","655a308e3cc84dd3699ea93e","655a308e3cc84dd3699ea93e_20240207","","","","5","9","1213",""
"2012","0","html-button-response","51","241287","0.0-51.0","655a308e3cc84dd3699ea93e","655a308e3cc84dd3699ea93e_20240207","","","","5","1","880",""
"2174","0","html-button-response","52","243962","0.0-52.0","655a308e3cc84dd3699ea93e","655a308e3cc84dd3699ea93e_20240207","","","","5","9","369",""
"4023","0","html-button-response","53","248487","0.0-53.0","655a308e3cc84dd3699ea93e","655a308e3cc84dd3699ea93e_20240207","","","","5","5","1995",""
"2376","0","html-button-response","54","251365","0.0-54.0","655a308e3cc84dd3699ea93e","655a308e3cc84dd3699ea93e_20240207","","","","5","1","480",""
"2164","0","html-button-response","55","254030","0.0-55.0","655a308e3cc84dd3699ea93e","655a308e3cc84dd3699ea93e_20240207","","","","5","9","1029",""
"5214","0","html-button-response","56","259746","0.0-56.0","655a308e3cc84dd3699ea93e","655a308e3cc84dd3699ea93e_20240207","","","","5","9","1746",""
"2093","0","html-button-response","57","262341","0.0-57.0","655a308e3cc84dd3699ea93e","655a308e3cc84dd3699ea93e_20240207","","","","5","1","723",""
"3569","0","html-button-response","58","266413","0.0-58.0","655a308e3cc84dd3699ea93e","655a308e3cc84dd3699ea93e_20240207","","","","5","9","1772",""
"3027","0","html-button-response","59","269953","0.0-59.0","655a308e3cc84dd3699ea93e","655a308e3cc84dd3699ea93e_20240207","","","","5","1","1038",""
"2299","0","html-button-response","60","272755","0.0-60.0","655a308e3cc84dd3699ea93e","655a308e3cc84dd3699ea93e_20240207","","","","5","1","1195",""
"3776","0","html-button-response","61","277034","0.0-61.0","655a308e3cc84dd3699ea93e","655a308e3cc84dd3699ea93e_20240207","","","","5","1","481",""
"5488","0","html-button-response","62","283024","0.0-62.0","655a308e3cc84dd3699ea93e","655a308e3cc84dd3699ea93e_20240207","","","","5","1","1582",""
"1896","0","html-button-response","63","285422","0.0-63.0","655a308e3cc84dd3699ea93e","655a308e3cc84dd3699ea93e_20240207","","","","5","9","732",""
"1526","0","html-button-response","64","287452","0.0-64.0","655a308e3cc84dd3699ea93e","655a308e3cc84dd3699ea93e_20240207","","","","5","9","580",""
"1674","0","html-button-response","65","289630","0.0-65.0","655a308e3cc84dd3699ea93e","655a308e3cc84dd3699ea93e_20240207","","","","5","5","2186",""
"1833","0","html-button-response","66","291965","0.0-66.0","655a308e3cc84dd3699ea93e","655a308e3cc84dd3699ea93e_20240207","","","","5","1","581",""
"1809","0","html-button-response","67","294277","0.0-67.0","655a308e3cc84dd3699ea93e","655a308e3cc84dd3699ea93e_20240207","","","","5","5","928",""
"2315","0","html-button-response","68","297095","0.0-68.0","655a308e3cc84dd3699ea93e","655a308e3cc84dd3699ea93e_20240207","","","","5","1","543",""
"1760","0","html-button-response","69","299357","0.0-69.0","655a308e3cc84dd3699ea93e","655a308e3cc84dd3699ea93e_20240207","","","","5","1","1559",""
"1825","0","html-button-response","70","301684","0.0-70.0","655a308e3cc84dd3699ea93e","655a308e3cc84dd3699ea93e_20240207","","","","5","1","25",""
"1839","0","html-button-response","71","304024","0.0-71.0","655a308e3cc84dd3699ea93e","655a308e3cc84dd3699ea93e_20240207","","","","5","5","1473",""
"3984","0","html-button-response","72","308510","0.0-72.0","655a308e3cc84dd3699ea93e","655a308e3cc84dd3699ea93e_20240207","","","","5","9","677",""
"2127","0","html-button-response","73","311139","0.0-73.0","655a308e3cc84dd3699ea93e","655a308e3cc84dd3699ea93e_20240207","","","","9","5","54",""
"1862","0","html-button-response","74","313503","0.0-74.0","655a308e3cc84dd3699ea93e","655a308e3cc84dd3699ea93e_20240207","","","","5","5","1675",""
"1763","0","html-button-response","75","315767","0.0-75.0","655a308e3cc84dd3699ea93e","655a308e3cc84dd3699ea93e_20240207","","","","5","1","1234",""
"3055","0","html-button-response","76","319324","0.0-76.0","655a308e3cc84dd3699ea93e","655a308e3cc84dd3699ea93e_20240207","","","","5","1","511",""
"1827","0","html-button-response","77","321654","0.0-77.0","655a308e3cc84dd3699ea93e","655a308e3cc84dd3699ea93e_20240207","","","","5","5","963",""
"2118","0","html-button-response","78","324274","0.0-78.0","655a308e3cc84dd3699ea93e","655a308e3cc84dd3699ea93e_20240207","","","","5","9","2046",""
"6053","0","html-button-response","79","330829","0.0-79.0","655a308e3cc84dd3699ea93e","655a308e3cc84dd3699ea93e_20240207","","","","5","5","878",""
"2456","0","html-button-response","80","333789","0.0-80.0","655a308e3cc84dd3699ea93e","655a308e3cc84dd3699ea93e_20240207","","","","5","5","326",""
"3754","0","html-button-response","81","338047","0.0-81.0","655a308e3cc84dd3699ea93e","655a308e3cc84dd3699ea93e_20240207","","","","5","9","1734",""
"1981","0","html-button-response","82","340531","0.0-82.0","655a308e3cc84dd3699ea93e","655a308e3cc84dd3699ea93e_20240207","","","","5","9","1055",""
"1845","0","html-button-response","83","342879","0.0-83.0","655a308e3cc84dd3699ea93e","655a308e3cc84dd3699ea93e_20240207","","","","5","1","205",""
"2939","0","html-button-response","84","346322","0.0-84.0","655a308e3cc84dd3699ea93e","655a308e3cc84dd3699ea93e_20240207","","","","5","5","669",""
"2453","0","html-button-response","85","349277","0.0-85.0","655a308e3cc84dd3699ea93e","655a308e3cc84dd3699ea93e_20240207","","","","5","9","680",""
"2030","0","html-button-response","86","351810","0.0-86.0","655a308e3cc84dd3699ea93e","655a308e3cc84dd3699ea93e_20240207","","","","5","9","2108",""
"2000","0","html-button-response","87","354314","0.0-87.0","655a308e3cc84dd3699ea93e","655a308e3cc84dd3699ea93e_20240207","","","","5","1","113",""
"2058","0","html-button-response","88","356873","0.0-88.0","655a308e3cc84dd3699ea93e","655a308e3cc84dd3699ea93e_20240207","","","","5","5","1775",""
"1678","0","html-button-response","89","359054","0.0-89.0","655a308e3cc84dd3699ea93e","655a308e3cc84dd3699ea93e_20240207","","","","5","5","820",""
"1902","0","html-button-response","90","361457","0.0-90.0","655a308e3cc84dd3699ea93e","655a308e3cc84dd3699ea93e_20240207","","","","5","5","1814",""
"2259","0","html-button-response","91","364217","0.0-91.0","655a308e3cc84dd3699ea93e","655a308e3cc84dd3699ea93e_20240207","","","","5","1","1438",""
"5910","0","html-button-response","92","370629","0.0-92.0","655a308e3cc84dd3699ea93e","655a308e3cc84dd3699ea93e_20240207","","","","5","9","1748",""
"1954","0","html-button-response","93","373097","0.0-93.0","655a308e3cc84dd3699ea93e","655a308e3cc84dd3699ea93e_20240207","","","","5","9","2059",""
"1771","0","html-button-response","94","375370","0.0-94.0","655a308e3cc84dd3699ea93e","655a308e3cc84dd3699ea93e_20240207","","","","5","1","819",""
"2961","0","html-button-response","95","378833","0.0-95.0","655a308e3cc84dd3699ea93e","655a308e3cc84dd3699ea93e_20240207","","","","5","9","1771",""
"1732","0","html-button-response","96","381067","0.0-96.0","655a308e3cc84dd3699ea93e","655a308e3cc84dd3699ea93e_20240207","","","","5","5","1069",""
"2220","0","html-button-response","97","383790","0.0-97.0","655a308e3cc84dd3699ea93e","655a308e3cc84dd3699ea93e_20240207","","","","5","9","1877",""
"3149","0","html-button-response","98","387441","0.0-98.0","655a308e3cc84dd3699ea93e","655a308e3cc84dd3699ea93e_20240207","","","","5","1","168",""
"2022","0","html-button-response","99","389966","0.0-99.0","655a308e3cc84dd3699ea93e","655a308e3cc84dd3699ea93e_20240207","","","","5","1","655",""
"1873","0","html-button-response","100","392341","0.0-100.0","655a308e3cc84dd3699ea93e","655a308e3cc84dd3699ea93e_20240207","","","","5","1","1715",""
"3888","0","html-button-response","101","396732","0.0-101.0","655a308e3cc84dd3699ea93e","655a308e3cc84dd3699ea93e_20240207","","","","5","5","1289",""
"1978","0","html-button-response","102","399213","0.0-102.0","655a308e3cc84dd3699ea93e","655a308e3cc84dd3699ea93e_20240207","","","","5","1","388",""
"1890","0","html-button-response","103","401606","0.0-103.0","655a308e3cc84dd3699ea93e","655a308e3cc84dd3699ea93e_20240207","","","","5","5","1979",""
"1993","0","html-button-response","104","404102","0.0-104.0","655a308e3cc84dd3699ea93e","655a308e3cc84dd3699ea93e_20240207","","","","5","9","1355",""
"2564","0","html-button-response","105","407168","0.0-105.0","655a308e3cc84dd3699ea93e","655a308e3cc84dd3699ea93e_20240207","","","","5","5","1047",""
"1508","0","html-button-response","106","409180","0.0-106.0","655a308e3cc84dd3699ea93e","655a308e3cc84dd3699ea93e_20240207","","","","5","5","2111",""
"2734","0","html-button-response","107","412417","0.0-107.0","655a308e3cc84dd3699ea93e","655a308e3cc84dd3699ea93e_20240207","","","","5","1","681",""
"1724","0","html-button-response","108","414651","0.0-108.0","655a308e3cc84dd3699ea93e","655a308e3cc84dd3699ea93e_20240207","","","","5","5","1850",""
"1834","0","html-button-response","109","416988","0.0-109.0","655a308e3cc84dd3699ea93e","655a308e3cc84dd3699ea93e_20240207","","","","5","5","1317",""
"2863","0","html-button-response","110","420353","0.0-110.0","655a308e3cc84dd3699ea93e","655a308e3cc84dd3699ea93e_20240207","","","","5","9","1744",""
"2704","0","html-button-response","111","423558","0.0-111.0","655a308e3cc84dd3699ea93e","655a308e3cc84dd3699ea93e_20240207","","","","5","9","1931",""
"3314","0","html-button-response","112","427375","0.0-112.0","655a308e3cc84dd3699ea93e","655a308e3cc84dd3699ea93e_20240207","","","","5","5","1490",""
"2165","0","html-button-response","113","430041","0.0-113.0","655a308e3cc84dd3699ea93e","655a308e3cc84dd3699ea93e_20240207","","","","5","1","2050",""
"3592","0","html-button-response","114","434135","0.0-114.0","655a308e3cc84dd3699ea93e","655a308e3cc84dd3699ea93e_20240207","","","","5","9","1043",""
"3815","0","html-button-response","115","438783","0.0-115.0","655a308e3cc84dd3699ea93e","655a308e3cc84dd3699ea93e_20240207","","","","5","9","2136",""
"1788","0","html-button-response","116","441073","0.0-116.0","655a308e3cc84dd3699ea93e","655a308e3cc84dd3699ea93e_20240207","","","","5","1","314",""
"2903","0","html-button-response","117","444477","0.0-117.0","655a308e3cc84dd3699ea93e","655a308e3cc84dd3699ea93e_20240207","","","","5","1","864",""
"1707","0","html-button-response","118","446686","0.0-118.0","655a308e3cc84dd3699ea93e","655a308e3cc84dd3699ea93e_20240207","","","","5","1","698",""
"1713","0","html-button-response","119","448902","0.0-119.0","655a308e3cc84dd3699ea93e","655a308e3cc84dd3699ea93e_20240207","","","","5","9","1903",""
"1709","0","html-button-response","120","451116","0.0-120.0","655a308e3cc84dd3699ea93e","655a308e3cc84dd3699ea93e_20240207","","","","5","1","312",""
"3083","0","html-button-response","121","454702","0.0-121.0","655a308e3cc84dd3699ea93e","655a308e3cc84dd3699ea93e_20240207","","","","5","1","478",""
"1579","0","html-button-response","122","456784","0.0-122.0","655a308e3cc84dd3699ea93e","655a308e3cc84dd3699ea93e_20240207","","","","5","1","339",""
"1675","0","html-button-response","123","458961","0.0-123.0","655a308e3cc84dd3699ea93e","655a308e3cc84dd3699ea93e_20240207","","","","5","5","2154",""
"4033","0","html-button-response","124","463496","0.0-124.0","655a308e3cc84dd3699ea93e","655a308e3cc84dd3699ea93e_20240207","","","","5","1","1954",""
"976","0","html-button-response","125","464974","0.0-125.0","655a308e3cc84dd3699ea93e","655a308e3cc84dd3699ea93e_20240207","","","","5","1","308",""
"699","0","html-button-response","126","466175","0.0-126.0","655a308e3cc84dd3699ea93e","655a308e3cc84dd3699ea93e_20240207","","","","5","1","1976",""
"887","0","html-button-response","127","467565","0.0-127.0","655a308e3cc84dd3699ea93e","655a308e3cc84dd3699ea93e_20240207","","","","5","1","1654",""
"1148","0","html-button-response","128","469216","0.0-128.0","655a308e3cc84dd3699ea93e","655a308e3cc84dd3699ea93e_20240207","","","","5","1","946",""
"1727","0","html-button-response","129","471446","0.0-129.0","655a308e3cc84dd3699ea93e","655a308e3cc84dd3699ea93e_20240207","","","","5","1","126",""
"1171","0","html-button-response","130","473121","0.0-130.0","655a308e3cc84dd3699ea93e","655a308e3cc84dd3699ea93e_20240207","","","","5","1","404",""
"1145","0","html-button-response","131","474768","0.0-131.0","655a308e3cc84dd3699ea93e","655a308e3cc84dd3699ea93e_20240207","","","","5","1","1480",""
"1232","0","html-button-response","132","476502","0.0-132.0","655a308e3cc84dd3699ea93e","655a308e3cc84dd3699ea93e_20240207","","","","5","1","411",""
"1488","0","html-button-response","133","478492","0.0-133.0","655a308e3cc84dd3699ea93e","655a308e3cc84dd3699ea93e_20240207","","","","5","1","1130",""
"1631","0","html-button-response","134","480625","0.0-134.0","655a308e3cc84dd3699ea93e","655a308e3cc84dd3699ea93e_20240207","","","","5","5","1617",""
"1354","0","html-button-response","135","482480","0.0-135.0","655a308e3cc84dd3699ea93e","655a308e3cc84dd3699ea93e_20240207","","","","5","5","1323",""
"1924","0","html-button-response","136","484905","0.0-136.0","655a308e3cc84dd3699ea93e","655a308e3cc84dd3699ea93e_20240207","","","","1","5","282",""
"953","0","html-button-response","137","486360","0.0-137.0","655a308e3cc84dd3699ea93e","655a308e3cc84dd3699ea93e_20240207","","","","5","1","1281",""
"733","0","html-button-response","138","487596","0.0-138.0","655a308e3cc84dd3699ea93e","655a308e3cc84dd3699ea93e_20240207","","","","5","1","320",""
"997","0","html-button-response","139","489094","0.0-139.0","655a308e3cc84dd3699ea93e","655a308e3cc84dd3699ea93e_20240207","","","","5","1","103",""
"1340","0","html-button-response","140","490935","0.0-140.0","655a308e3cc84dd3699ea93e","655a308e3cc84dd3699ea93e_20240207","","","","4","1","1294",""
"1436","0","html-button-response","141","492872","0.0-141.0","655a308e3cc84dd3699ea93e","655a308e3cc84dd3699ea93e_20240207","","","","5","1","222",""
"1602","0","html-button-response","142","494986","0.0-142.0","655a308e3cc84dd3699ea93e","655a308e3cc84dd3699ea93e_20240207","","","","5","6","951",""
"4789","0","html-button-response","143","500277","0.0-143.0","655a308e3cc84dd3699ea93e","655a308e3cc84dd3699ea93e_20240207","","","","5","1","1117",""
"1202","0","html-button-response","144","501982","0.0-144.0","655a308e3cc84dd3699ea93e","655a308e3cc84dd3699ea93e_20240207","","","","5","1","59",""
"607","0","html-button-response","145","503092","0.0-145.0","655a308e3cc84dd3699ea93e","655a308e3cc84dd3699ea93e_20240207","","","","6","1","1229",""
"673","0","html-button-response","146","504268","0.0-146.0","655a308e3cc84dd3699ea93e","655a308e3cc84dd3699ea93e_20240207","","","","5","1","2110",""
"2755","0","html-button-response","147","507525","0.0-147.0","655a308e3cc84dd3699ea93e","655a308e3cc84dd3699ea93e_20240207","","","","6","1","267",""
"559","0","html-button-response","148","508586","0.0-148.0","655a308e3cc84dd3699ea93e","655a308e3cc84dd3699ea93e_20240207","","","","4","1","1157",""
"535","0","html-button-response","149","509624","0.0-149.0","655a308e3cc84dd3699ea93e","655a308e3cc84dd3699ea93e_20240207","","","","5","1","1263",""
"747","0","html-button-response","150","510874","0.0-150.0","655a308e3cc84dd3699ea93e","655a308e3cc84dd3699ea93e_20240207","","","","4","1","547",""
"949","0","html-button-response","151","512326","0.0-151.0","655a308e3cc84dd3699ea93e","655a308e3cc84dd3699ea93e_20240207","","","","4","1","1868",""
"1842","0","html-button-response","152","514671","0.0-152.0","655a308e3cc84dd3699ea93e","655a308e3cc84dd3699ea93e_20240207","","","","5","1","386",""
"1540","0","html-button-response","153","516714","0.0-153.0","655a308e3cc84dd3699ea93e","655a308e3cc84dd3699ea93e_20240207","","","","5","1","687",""
"1461","0","html-button-response","154","518678","0.0-154.0","655a308e3cc84dd3699ea93e","655a308e3cc84dd3699ea93e_20240207","","","","5","1","2168",""
"1638","0","html-button-response","155","520820","0.0-155.0","655a308e3cc84dd3699ea93e","655a308e3cc84dd3699ea93e_20240207","","","","5","5","1631",""
"1326","0","html-button-response","156","522648","0.0-156.0","655a308e3cc84dd3699ea93e","655a308e3cc84dd3699ea93e_20240207","","","","5","5","1484",""
"2196","0","html-button-response","157","525348","0.0-157.0","655a308e3cc84dd3699ea93e","655a308e3cc84dd3699ea93e_20240207","","","","5","5","2157",""
"1484","0","html-button-response","158","527334","0.0-158.0","655a308e3cc84dd3699ea93e","655a308e3cc84dd3699ea93e_20240207","","","","5","5","1518",""
"3196","0","html-button-response","159","531032","0.0-159.0","655a308e3cc84dd3699ea93e","655a308e3cc84dd3699ea93e_20240207","","","","9","5","68",""
"2896","0","html-button-response","160","534431","0.0-160.0","655a308e3cc84dd3699ea93e","655a308e3cc84dd3699ea93e_20240207","","","","5","5","664",""
"1626","0","html-button-response","161","536560","0.0-161.0","655a308e3cc84dd3699ea93e","655a308e3cc84dd3699ea93e_20240207","","","","5","1","233",""
"740","0","html-button-response","162","537807","0.0-162.0","655a308e3cc84dd3699ea93e","655a308e3cc84dd3699ea93e_20240207","","","","5","1","1288",""
"1277","0","html-button-response","163","539587","0.0-163.0","655a308e3cc84dd3699ea93e","655a308e3cc84dd3699ea93e_20240207","","","","5","1","1952",""
"2464","0","html-button-response","164","542554","0.0-164.0","655a308e3cc84dd3699ea93e","655a308e3cc84dd3699ea93e_20240207","","","","5","9","1044",""
"1996","0","html-button-response","165","545052","0.0-165.0","655a308e3cc84dd3699ea93e","655a308e3cc84dd3699ea93e_20240207","","","","5","1","1415",""
"2306","0","html-button-response","166","547859","0.0-166.0","655a308e3cc84dd3699ea93e","655a308e3cc84dd3699ea93e_20240207","","","","5","5","1145",""
"2895","0","html-button-response","167","551256","0.0-167.0","655a308e3cc84dd3699ea93e","655a308e3cc84dd3699ea93e_20240207","","","","5","1","287",""
"2905","0","html-button-response","168","554662","0.0-168.0","655a308e3cc84dd3699ea93e","655a308e3cc84dd3699ea93e_20240207","","","","5","1","150",""
"2189","0","html-button-response","169","557352","0.0-169.0","655a308e3cc84dd3699ea93e","655a308e3cc84dd3699ea93e_20240207","","","","5","5","1662",""
"1888","0","html-button-response","170","559741","0.0-170.0","655a308e3cc84dd3699ea93e","655a308e3cc84dd3699ea93e_20240207","","","","5","5","1461",""
"2673","0","html-button-response","171","562916","0.0-171.0","655a308e3cc84dd3699ea93e","655a308e3cc84dd3699ea93e_20240207","","","","5","5","1981",""
"1505","0","html-button-response","172","564923","0.0-172.0","655a308e3cc84dd3699ea93e","655a308e3cc84dd3699ea93e_20240207","","","","5","5","1073",""
"1808","0","html-button-response","173","567235","0.0-173.0","655a308e3cc84dd3699ea93e","655a308e3cc84dd3699ea93e_20240207","","","","5","5","941",""
"1949","0","html-button-response","174","569687","0.0-174.0","655a308e3cc84dd3699ea93e","655a308e3cc84dd3699ea93e_20240207","","","","5","1","137",""
"1134","0","html-button-response","175","571324","0.0-175.0","655a308e3cc84dd3699ea93e","655a308e3cc84dd3699ea93e_20240207","","","","5","1","418",""
"1178","0","html-button-response","176","573005","0.0-176.0","655a308e3cc84dd3699ea93e","655a308e3cc84dd3699ea93e_20240207","","","","5","1","1550",""
"960","0","html-button-response","177","574469","0.0-177.0","655a308e3cc84dd3699ea93e","655a308e3cc84dd3699ea93e_20240207","","","","5","1","2",""
"1026","0","html-button-response","178","575999","0.0-178.0","655a308e3cc84dd3699ea93e","655a308e3cc84dd3699ea93e_20240207","","","","5","1","1837",""
"1083","0","html-button-response","179","577584","0.0-179.0","655a308e3cc84dd3699ea93e","655a308e3cc84dd3699ea93e_20240207","","","","5","1","840",""
"1239","0","html-button-response","180","579326","0.0-180.0","655a308e3cc84dd3699ea93e","655a308e3cc84dd3699ea93e_20240207","","","","5","1","632",""
"1277","0","html-button-response","181","581106","0.0-181.0","655a308e3cc84dd3699ea93e","655a308e3cc84dd3699ea93e_20240207","","","","5","1","1168",""
"1923","0","html-button-response","182","583532","0.0-182.0","655a308e3cc84dd3699ea93e","655a308e3cc84dd3699ea93e_20240207","","","","5","9","1756",""
"1511","0","html-button-response","183","585546","0.0-183.0","655a308e3cc84dd3699ea93e","655a308e3cc84dd3699ea93e_20240207","","","","5","1","327",""
"1587","0","html-button-response","184","587636","0.0-184.0","655a308e3cc84dd3699ea93e","655a308e3cc84dd3699ea93e_20240207","","","","5","1","2132",""
"1975","0","html-button-response","185","590114","0.0-185.0","655a308e3cc84dd3699ea93e","655a308e3cc84dd3699ea93e_20240207","","","","5","9","1730",""
"1553","0","html-button-response","186","592170","0.0-186.0","655a308e3cc84dd3699ea93e","655a308e3cc84dd3699ea93e_20240207","","","","5","1","780",""
"2607","0","html-button-response","187","595280","0.0-187.0","655a308e3cc84dd3699ea93e","655a308e3cc84dd3699ea93e_20240207","","","","5","9","2060",""
"3007","0","html-button-response","188","598790","0.0-188.0","655a308e3cc84dd3699ea93e","655a308e3cc84dd3699ea93e_20240207","","","","5","5","293",""
"1368","0","html-button-response","189","600663","0.0-189.0","655a308e3cc84dd3699ea93e","655a308e3cc84dd3699ea93e_20240207","","","","5","1","1409",""
"1960","0","html-button-response","190","603123","0.0-190.0","655a308e3cc84dd3699ea93e","655a308e3cc84dd3699ea93e_20240207","","","","4","1","361",""
"1681","0","html-button-response","191","605305","0.0-191.0","655a308e3cc84dd3699ea93e","655a308e3cc84dd3699ea93e_20240207","","","","5","1","739",""
"4252","0","html-button-response","192","610058","0.0-192.0","655a308e3cc84dd3699ea93e","655a308e3cc84dd3699ea93e_20240207","","","","9","6","560",""
"2583","0","html-button-response","193","613143","0.0-193.0","655a308e3cc84dd3699ea93e","655a308e3cc84dd3699ea93e_20240207","","","","9","5","266",""
"2693","0","html-button-response","194","616337","0.0-194.0","655a308e3cc84dd3699ea93e","655a308e3cc84dd3699ea93e_20240207","","","","9","5","32",""
"2534","0","html-button-response","195","619372","0.0-195.0","655a308e3cc84dd3699ea93e","655a308e3cc84dd3699ea93e_20240207","","","","5","1","1609",""
"686","0","html-button-response","196","620559","0.0-196.0","655a308e3cc84dd3699ea93e","655a308e3cc84dd3699ea93e_20240207","","","","5","1","745",""
"524","0","html-button-response","197","621585","0.0-197.0","655a308e3cc84dd3699ea93e","655a308e3cc84dd3699ea93e_20240207","","","","5","1","2173",""
"560","0","html-button-response","198","622647","0.0-198.0","655a308e3cc84dd3699ea93e","655a308e3cc84dd3699ea93e_20240207","","","","6","1","1450",""
"620","0","html-button-response","199","623769","0.0-199.0","655a308e3cc84dd3699ea93e","655a308e3cc84dd3699ea93e_20240207","","","","5","1","826",""
"489","0","html-button-response","200","624760","0.0-200.0","655a308e3cc84dd3699ea93e","655a308e3cc84dd3699ea93e_20240207","","","","5","1","969",""
"553","0","html-button-response","201","625823","0.0-201.0","655a308e3cc84dd3699ea93e","655a308e3cc84dd3699ea93e_20240207","","","","5","4","1243",""
"550","0","html-button-response","202","626875","0.0-202.0","655a308e3cc84dd3699ea93e","655a308e3cc84dd3699ea93e_20240207","","","","5","4","1925",""
"289","0","html-button-response","203","627666","0.0-203.0","655a308e3cc84dd3699ea93e","655a308e3cc84dd3699ea93e_20240207","","","","5","5","1271",""
"305","0","html-button-response","204","628474","0.0-204.0","655a308e3cc84dd3699ea93e","655a308e3cc84dd3699ea93e_20240207","","","","5","4","142",""
"753","0","html-button-response","205","629730","0.0-205.0","655a308e3cc84dd3699ea93e","655a308e3cc84dd3699ea93e_20240207","","","","5","1","1870",""
"748","0","html-button-response","206","630981","0.0-206.0","655a308e3cc84dd3699ea93e","655a308e3cc84dd3699ea93e_20240207","","","","5","1","2155",""
"992","0","html-button-response","207","632475","0.0-207.0","655a308e3cc84dd3699ea93e","655a308e3cc84dd3699ea93e_20240207","","","","5","1","1051",""
"411","0","html-button-response","208","633389","0.0-208.0","655a308e3cc84dd3699ea93e","655a308e3cc84dd3699ea93e_20240207","","","","5","1","600",""
"310","0","html-button-response","209","634200","0.0-209.0","655a308e3cc84dd3699ea93e","655a308e3cc84dd3699ea93e_20240207","","","","5","1","1640",""
"1555","0","html-button-response","210","636257","0.0-210.0","655a308e3cc84dd3699ea93e","655a308e3cc84dd3699ea93e_20240207","","","","5","1","854",""
"1344","0","html-button-response","211","638103","0.0-211.0","655a308e3cc84dd3699ea93e","655a308e3cc84dd3699ea93e_20240207","","","","5","1","2142",""
"737","0","html-button-response","212","639357","0.0-212.0","655a308e3cc84dd3699ea93e","655a308e3cc84dd3699ea93e_20240207","","","","5","5","623",""
"817","0","html-button-response","213","640677","0.0-213.0","655a308e3cc84dd3699ea93e","655a308e3cc84dd3699ea93e_20240207","","","","5","1","2101",""
"825","0","html-button-response","214","642005","0.0-214.0","655a308e3cc84dd3699ea93e","655a308e3cc84dd3699ea93e_20240207","","","","5","1","1947",""
"2510","0","html-button-response","215","645017","0.0-215.0","655a308e3cc84dd3699ea93e","655a308e3cc84dd3699ea93e_20240207","","","","5","5","1970",""
"1377","0","html-button-response","216","646897","0.0-216.0","655a308e3cc84dd3699ea93e","655a308e3cc84dd3699ea93e_20240207","","","","5","1","345",""
"1632","0","html-button-response","217","649033","0.0-217.0","655a308e3cc84dd3699ea93e","655a308e3cc84dd3699ea93e_20240207","","","","5","1","1209",""
"691","0","html-button-response","218","650226","0.0-218.0","655a308e3cc84dd3699ea93e","655a308e3cc84dd3699ea93e_20240207","","","","5","1","1311",""
"1416","0","html-button-response","219","652143","0.0-219.0","655a308e3cc84dd3699ea93e","655a308e3cc84dd3699ea93e_20240207","","","","6","1","1872",""
"2564","0","html-button-response","220","655210","0.0-220.0","655a308e3cc84dd3699ea93e","655a308e3cc84dd3699ea93e_20240207","","","","5","9","1395",""
"1417","0","html-button-response","221","657130","0.0-221.0","655a308e3cc84dd3699ea93e","655a308e3cc84dd3699ea93e_20240207","","","","5","1","440",""
"303","0","html-button-response","222","657935","0.0-222.0","655a308e3cc84dd3699ea93e","655a308e3cc84dd3699ea93e_20240207","","","","5","1","1131",""
"620","0","html-button-response","223","659058","0.0-223.0","655a308e3cc84dd3699ea93e","655a308e3cc84dd3699ea93e_20240207","","","","5","1","1858",""
"2141","0","html-button-response","224","661700","0.0-224.0","655a308e3cc84dd3699ea93e","655a308e3cc84dd3699ea93e_20240207","","","","9","5","239",""
"3056","0","html-button-response","225","665258","0.0-225.0","655a308e3cc84dd3699ea93e","655a308e3cc84dd3699ea93e_20240207","","","Thank you. You have reached the end. 
                       <br>Click the button below to reveal your compensation.
                        <br><br>","","","","1232,1859,56,1702,90,1573,1284,913,1396,1322,1657,1575,884,1856,283,887,2117,1024,1875,673,953,1794,178,561,727,1121,1515,1220,1079,516,2014,1964,1458,104,1939,883,835,403,1665,1563,144,1838,768,2196,987,1213,880,369,1995,480,1029,1746,723,1772,1038,1195,481,1582,732,580,2186,581,928,543,1559,25,1473,677,54,1675,1234,511,963,2046,878,326,1734,1055,205,669,680,2108,113,1775,820,1814,1438,1748,2059,819,1771,1069,1877,168,655,1715,1289,388,1979,1355,1047,2111,681,1850,1317,1744,1931,1490,2050,1043,2136,314,864,698,1903,312,478,339,2154,1954,308,1976,1654,946,126,404,1480,411,1130,1617,1323,282,1281,320,103,1294,222,951,1117,59,1229,2110,267,1157,1263,547,1868,386,687,2168,1631,1484,2157,1518,68,664,233,1288,1952,1044,1415,1145,287,150,1662,1461,1981,1073,941,137,418,1550,2,1837,840,632,1168,1756,327,2132,1730,780,2060,293,1409,361,739,560,266,32,1609,745,2173,1450,826,969,1243,1925,1271,142,1870,2155,1051,600,1640,854,2142,623,2101,1947,1970,345,1209,1311,1872,1395,440,1131,1858,239"
