"rt","response","trial_type","trial_index","time_elapsed","internal_node_id","part_ID","ID_DATE","screen_id","understand_correct","stimulus","arousal","valence","img_id","tested_trial_idx"
"7099","0","html-button-response","0","7102","0.0-0.0","655ce19d4972e57a547558c2","655ce19d4972e57a547558c2_20240207","","","","","","",""
"17195","[object Object]","survey-html-form","1","24817","0.0-1.0","655ce19d4972e57a547558c2","655ce19d4972e57a547558c2_20240207","prolific_id_page","","","","","",""
"10605","0","html-button-response","2","35424","0.0-2.0","655ce19d4972e57a547558c2","655ce19d4972e57a547558c2_20240207","","","","","","",""
"39965","0","html-button-response","3","75899","0.0-3.0-0.0","655ce19d4972e57a547558c2","655ce19d4972e57a547558c2_20240207","","true","","","","",""
"3366","0","html-button-response","4","79785","0.0-4.0","655ce19d4972e57a547558c2","655ce19d4972e57a547558c2_20240207","","","
<div>
Great! You will now go on to rate the faces.
<br><br>
</div>
","","","",""
"11136","0","html-button-response","5","91446","0.0-5.0","655ce19d4972e57a547558c2","655ce19d4972e57a547558c2_20240207","","","","7","8","1746",""
"1741","0","html-button-response","6","93691","0.0-6.0","655ce19d4972e57a547558c2","655ce19d4972e57a547558c2_20240207","","","","3","9","1939",""
"1403","0","html-button-response","7","95601","0.0-7.0","655ce19d4972e57a547558c2","655ce19d4972e57a547558c2_20240207","","","","1","7","671",""
"2388","0","html-button-response","8","98501","0.0-8.0","655ce19d4972e57a547558c2","655ce19d4972e57a547558c2_20240207","","","","2","2","1274",""
"2404","0","html-button-response","9","101415","0.0-9.0","655ce19d4972e57a547558c2","655ce19d4972e57a547558c2_20240207","","","","6","8","1398",""
"2429","0","html-button-response","10","104360","0.0-10.0","655ce19d4972e57a547558c2","655ce19d4972e57a547558c2_20240207","","","","5","5","1797",""
"4433","0","html-button-response","11","109301","0.0-11.0","655ce19d4972e57a547558c2","655ce19d4972e57a547558c2_20240207","","","","3","3","2144",""
"4466","0","html-button-response","12","114270","0.0-12.0","655ce19d4972e57a547558c2","655ce19d4972e57a547558c2_20240207","","","","5","5","669",""
"2414","0","html-button-response","13","117191","0.0-13.0","655ce19d4972e57a547558c2","655ce19d4972e57a547558c2_20240207","","","","9","6","28",""
"2277","0","html-button-response","14","119971","0.0-14.0","655ce19d4972e57a547558c2","655ce19d4972e57a547558c2_20240207","","","","5","5","992",""
"2719","0","html-button-response","15","123196","0.0-15.0","655ce19d4972e57a547558c2","655ce19d4972e57a547558c2_20240207","","","","8","9","859",""
"3675","0","html-button-response","16","127382","0.0-16.0","655ce19d4972e57a547558c2","655ce19d4972e57a547558c2_20240207","","","","3","3","118",""
"1734","0","html-button-response","17","129631","0.0-17.0","655ce19d4972e57a547558c2","655ce19d4972e57a547558c2_20240207","","","","1","4","425",""
"1793","0","html-button-response","18","131931","0.0-18.0","655ce19d4972e57a547558c2","655ce19d4972e57a547558c2_20240207","","","","7","2","811",""
"1902","0","html-button-response","19","134349","0.0-19.0","655ce19d4972e57a547558c2","655ce19d4972e57a547558c2_20240207","","","","5","1","244",""
"1667","0","html-button-response","20","136519","0.0-20.0","655ce19d4972e57a547558c2","655ce19d4972e57a547558c2_20240207","","","","5","3","825",""
"1530","0","html-button-response","21","138553","0.0-21.0","655ce19d4972e57a547558c2","655ce19d4972e57a547558c2_20240207","","","","2","5","920",""
"898","0","html-button-response","22","139954","0.0-22.0","655ce19d4972e57a547558c2","655ce19d4972e57a547558c2_20240207","","","","5","2","1873",""
"1885","0","html-button-response","23","142346","0.0-23.0","655ce19d4972e57a547558c2","655ce19d4972e57a547558c2_20240207","","","","1","3","1092",""
"2043","0","html-button-response","24","144894","0.0-24.0","655ce19d4972e57a547558c2","655ce19d4972e57a547558c2_20240207","","","","8","7","587",""
"3339","0","html-button-response","25","148741","0.0-25.0","655ce19d4972e57a547558c2","655ce19d4972e57a547558c2_20240207","","","","5","8","1607",""
"2011","0","html-button-response","26","151268","0.0-26.0","655ce19d4972e57a547558c2","655ce19d4972e57a547558c2_20240207","","","","7","6","55",""
"2765","0","html-button-response","27","154536","0.0-27.0","655ce19d4972e57a547558c2","655ce19d4972e57a547558c2_20240207","","","","5","8","1410",""
"1948","0","html-button-response","28","156988","0.0-28.0","655ce19d4972e57a547558c2","655ce19d4972e57a547558c2_20240207","","","","8","7","747",""
"2697","0","html-button-response","29","160192","0.0-29.0","655ce19d4972e57a547558c2","655ce19d4972e57a547558c2_20240207","","","","4","2","448",""
"2951","0","html-button-response","30","163647","0.0-30.0","655ce19d4972e57a547558c2","655ce19d4972e57a547558c2_20240207","","","","2","2","1792",""
"2667","0","html-button-response","31","166817","0.0-31.0","655ce19d4972e57a547558c2","655ce19d4972e57a547558c2_20240207","","","","7","8","1587",""
"2755","0","html-button-response","32","170082","0.0-32.0","655ce19d4972e57a547558c2","655ce19d4972e57a547558c2_20240207","","","","6","2","374",""
"2057","0","html-button-response","33","172644","0.0-33.0","655ce19d4972e57a547558c2","655ce19d4972e57a547558c2_20240207","","","","8","7","1055",""
"2900","0","html-button-response","34","176050","0.0-34.0","655ce19d4972e57a547558c2","655ce19d4972e57a547558c2_20240207","","","","5","2","1111",""
"1920","0","html-button-response","35","178475","0.0-35.0","655ce19d4972e57a547558c2","655ce19d4972e57a547558c2_20240207","","","","5","2","1248",""
"1524","0","html-button-response","36","180508","0.0-36.0","655ce19d4972e57a547558c2","655ce19d4972e57a547558c2_20240207","","","","4","2","1404",""
"2118","0","html-button-response","37","183141","0.0-37.0","655ce19d4972e57a547558c2","655ce19d4972e57a547558c2_20240207","","","","1","6","1681",""
"3514","0","html-button-response","38","187162","0.0-38.0","655ce19d4972e57a547558c2","655ce19d4972e57a547558c2_20240207","","","","7","7","874",""
"1935","0","html-button-response","39","189613","0.0-39.0","655ce19d4972e57a547558c2","655ce19d4972e57a547558c2_20240207","","","","8","6","120",""
"2957","0","html-button-response","40","193079","0.0-40.0","655ce19d4972e57a547558c2","655ce19d4972e57a547558c2_20240207","","","","7","7","916",""
"2453","0","html-button-response","41","196039","0.0-41.0","655ce19d4972e57a547558c2","655ce19d4972e57a547558c2_20240207","","","","5","1","1088",""
"3913","0","html-button-response","42","200458","0.0-42.0","655ce19d4972e57a547558c2","655ce19d4972e57a547558c2_20240207","","","","8","8","2100",""
"2150","0","html-button-response","43","203114","0.0-43.0","655ce19d4972e57a547558c2","655ce19d4972e57a547558c2_20240207","","","","1","5","1122",""
"2292","0","html-button-response","44","205912","0.0-44.0","655ce19d4972e57a547558c2","655ce19d4972e57a547558c2_20240207","","","","4","6","79",""
"1902","0","html-button-response","45","208321","0.0-45.0","655ce19d4972e57a547558c2","655ce19d4972e57a547558c2_20240207","","","","6","8","600",""
"2679","0","html-button-response","46","211505","0.0-46.0","655ce19d4972e57a547558c2","655ce19d4972e57a547558c2_20240207","","","","1","2","1994",""
"2417","0","html-button-response","47","214425","0.0-47.0","655ce19d4972e57a547558c2","655ce19d4972e57a547558c2_20240207","","","","1","3","1272",""
"4934","0","html-button-response","48","219863","0.0-48.0","655ce19d4972e57a547558c2","655ce19d4972e57a547558c2_20240207","","","","6","2","177",""
"3074","0","html-button-response","49","223443","0.0-49.0","655ce19d4972e57a547558c2","655ce19d4972e57a547558c2_20240207","","","","6","2","516",""
"4651","0","html-button-response","50","228602","0.0-50.0","655ce19d4972e57a547558c2","655ce19d4972e57a547558c2_20240207","","","","4","3","486",""
"2708","0","html-button-response","51","231816","0.0-51.0","655ce19d4972e57a547558c2","655ce19d4972e57a547558c2_20240207","","","","3","1","736",""
"2915","0","html-button-response","52","235237","0.0-52.0","655ce19d4972e57a547558c2","655ce19d4972e57a547558c2_20240207","","","","7","7","731",""
"3042","0","html-button-response","53","238788","0.0-53.0","655ce19d4972e57a547558c2","655ce19d4972e57a547558c2_20240207","","","","1","3","437",""
"2340","0","html-button-response","54","241633","0.0-54.0","655ce19d4972e57a547558c2","655ce19d4972e57a547558c2_20240207","","","","5","5","1678",""
"2442","0","html-button-response","55","244583","0.0-55.0","655ce19d4972e57a547558c2","655ce19d4972e57a547558c2_20240207","","","","8","8","1708",""
"2755","0","html-button-response","56","247843","0.0-56.0","655ce19d4972e57a547558c2","655ce19d4972e57a547558c2_20240207","","","","5","1","1218",""
"1899","0","html-button-response","57","250251","0.0-57.0","655ce19d4972e57a547558c2","655ce19d4972e57a547558c2_20240207","","","","3","1","116",""
"1783","0","html-button-response","58","252542","0.0-58.0","655ce19d4972e57a547558c2","655ce19d4972e57a547558c2_20240207","","","","7","1","1668",""
"2496","0","html-button-response","59","255551","0.0-59.0","655ce19d4972e57a547558c2","655ce19d4972e57a547558c2_20240207","","","","2","4","1558",""
"4963","0","html-button-response","60","261020","0.0-60.0","655ce19d4972e57a547558c2","655ce19d4972e57a547558c2_20240207","","","","3","3","685",""
"1575","0","html-button-response","61","263102","0.0-61.0","655ce19d4972e57a547558c2","655ce19d4972e57a547558c2_20240207","","","","2","3","1116",""
"2947","0","html-button-response","62","266566","0.0-62.0","655ce19d4972e57a547558c2","655ce19d4972e57a547558c2_20240207","","","","7","7","210",""
"2438","0","html-button-response","63","269509","0.0-63.0","655ce19d4972e57a547558c2","655ce19d4972e57a547558c2_20240207","","","","7","2","1014",""
"2892","0","html-button-response","64","272913","0.0-64.0","655ce19d4972e57a547558c2","655ce19d4972e57a547558c2_20240207","","","","2","4","1219",""
"2148","0","html-button-response","65","275564","0.0-65.0","655ce19d4972e57a547558c2","655ce19d4972e57a547558c2_20240207","","","","7","2","504",""
"3447","0","html-button-response","66","279518","0.0-66.0","655ce19d4972e57a547558c2","655ce19d4972e57a547558c2_20240207","","","","2","6","1555",""
"1624","0","html-button-response","67","281647","0.0-67.0","655ce19d4972e57a547558c2","655ce19d4972e57a547558c2_20240207","","","","6","8","1305",""
"1274","0","html-button-response","68","283426","0.0-68.0","655ce19d4972e57a547558c2","655ce19d4972e57a547558c2_20240207","","","","6","8","1625",""
"1531","0","html-button-response","69","285462","0.0-69.0","655ce19d4972e57a547558c2","655ce19d4972e57a547558c2_20240207","","","","1","4","1985",""
"1358","0","html-button-response","70","287338","0.0-70.0","655ce19d4972e57a547558c2","655ce19d4972e57a547558c2_20240207","","","","2","6","1679",""
"4480","0","html-button-response","71","292326","0.0-71.0","655ce19d4972e57a547558c2","655ce19d4972e57a547558c2_20240207","","","","5","5","1946",""
"1895","0","html-button-response","72","294730","0.0-72.0","655ce19d4972e57a547558c2","655ce19d4972e57a547558c2_20240207","","","","1","4","767",""
"2658","0","html-button-response","73","297895","0.0-73.0","655ce19d4972e57a547558c2","655ce19d4972e57a547558c2_20240207","","","","4","3","76",""
"2154","0","html-button-response","74","300553","0.0-74.0","655ce19d4972e57a547558c2","655ce19d4972e57a547558c2_20240207","","","","1","3","1937",""
"3576","0","html-button-response","75","304644","0.0-75.0","655ce19d4972e57a547558c2","655ce19d4972e57a547558c2_20240207","","","","5","7","1655",""
"4325","0","html-button-response","76","309472","0.0-76.0","655ce19d4972e57a547558c2","655ce19d4972e57a547558c2_20240207","","","","5","5","1648",""
"2195","0","html-button-response","77","312172","0.0-77.0","655ce19d4972e57a547558c2","655ce19d4972e57a547558c2_20240207","","","","5","3","2014",""
"2516","0","html-button-response","78","315197","0.0-78.0","655ce19d4972e57a547558c2","655ce19d4972e57a547558c2_20240207","","","","7","7","66",""
"3030","0","html-button-response","79","318741","0.0-79.0","655ce19d4972e57a547558c2","655ce19d4972e57a547558c2_20240207","","","","2","5","318",""
"1507","0","html-button-response","80","320768","0.0-80.0","655ce19d4972e57a547558c2","655ce19d4972e57a547558c2_20240207","","","","6","2","349",""
"2302","0","html-button-response","81","323576","0.0-81.0","655ce19d4972e57a547558c2","655ce19d4972e57a547558c2_20240207","","","","8","7","5",""
"2896","0","html-button-response","82","326984","0.0-82.0","655ce19d4972e57a547558c2","655ce19d4972e57a547558c2_20240207","","","","5","2","1764",""
"2171","0","html-button-response","83","329665","0.0-83.0","655ce19d4972e57a547558c2","655ce19d4972e57a547558c2_20240207","","","","6","7","435",""
"2920","0","html-button-response","84","333097","0.0-84.0","655ce19d4972e57a547558c2","655ce19d4972e57a547558c2_20240207","","","","7","7","861",""
"2714","0","html-button-response","85","336316","0.0-85.0","655ce19d4972e57a547558c2","655ce19d4972e57a547558c2_20240207","","","","5","5","1178",""
"2029","0","html-button-response","86","338854","0.0-86.0","655ce19d4972e57a547558c2","655ce19d4972e57a547558c2_20240207","","","","5","2","1949",""
"2785","0","html-button-response","87","342145","0.0-87.0","655ce19d4972e57a547558c2","655ce19d4972e57a547558c2_20240207","","","","6","8","1590",""
"2934","0","html-button-response","88","345584","0.0-88.0","655ce19d4972e57a547558c2","655ce19d4972e57a547558c2_20240207","","","","6","2","569",""
"3206","0","html-button-response","89","349293","0.0-89.0","655ce19d4972e57a547558c2","655ce19d4972e57a547558c2_20240207","","","","6","2","348",""
"2670","0","html-button-response","90","352471","0.0-90.0","655ce19d4972e57a547558c2","655ce19d4972e57a547558c2_20240207","","","","1","6","927",""
"2522","0","html-button-response","91","355502","0.0-91.0","655ce19d4972e57a547558c2","655ce19d4972e57a547558c2_20240207","","","","5","5","1631",""
"4136","0","html-button-response","92","360149","0.0-92.0","655ce19d4972e57a547558c2","655ce19d4972e57a547558c2_20240207","","","","9","5","301",""
"3261","0","html-button-response","93","363923","0.0-93.0","655ce19d4972e57a547558c2","655ce19d4972e57a547558c2_20240207","","","","3","4","1924",""
"1873","0","html-button-response","94","366303","0.0-94.0","655ce19d4972e57a547558c2","655ce19d4972e57a547558c2_20240207","","","","8","5","940",""
"2676","0","html-button-response","95","369486","0.0-95.0","655ce19d4972e57a547558c2","655ce19d4972e57a547558c2_20240207","","","","7","7","2032",""
"2674","0","html-button-response","96","372666","0.0-96.0","655ce19d4972e57a547558c2","655ce19d4972e57a547558c2_20240207","","","","4","2","1040",""
"1542","0","html-button-response","97","374723","0.0-97.0","655ce19d4972e57a547558c2","655ce19d4972e57a547558c2_20240207","","","","4","1","1090",""
"2744","0","html-button-response","98","377973","0.0-98.0","655ce19d4972e57a547558c2","655ce19d4972e57a547558c2_20240207","","","","2","1","65",""
"2405","0","html-button-response","99","380884","0.0-99.0","655ce19d4972e57a547558c2","655ce19d4972e57a547558c2_20240207","","","","6","1","806",""
"4273","0","html-button-response","100","385661","0.0-100.0","655ce19d4972e57a547558c2","655ce19d4972e57a547558c2_20240207","","","","6","3","780",""
"3652","0","html-button-response","101","389818","0.0-101.0","655ce19d4972e57a547558c2","655ce19d4972e57a547558c2_20240207","","","","5","5","2153",""
"2012","0","html-button-response","102","392348","0.0-102.0","655ce19d4972e57a547558c2","655ce19d4972e57a547558c2_20240207","","","","1","5","1686",""
"1903","0","html-button-response","103","394756","0.0-103.0","655ce19d4972e57a547558c2","655ce19d4972e57a547558c2_20240207","","","","1","5","2169",""
"1623","0","html-button-response","104","396898","0.0-104.0","655ce19d4972e57a547558c2","655ce19d4972e57a547558c2_20240207","","","","5","5","2026",""
"4666","0","html-button-response","105","402080","0.0-105.0","655ce19d4972e57a547558c2","655ce19d4972e57a547558c2_20240207","","","","8","5","262",""
"2563","0","html-button-response","106","405148","0.0-106.0","655ce19d4972e57a547558c2","655ce19d4972e57a547558c2_20240207","","","","9","5","16",""
"2265","0","html-button-response","107","407930","0.0-107.0","655ce19d4972e57a547558c2","655ce19d4972e57a547558c2_20240207","","","","7","8","599",""
"3007","0","html-button-response","108","411450","0.0-108.0","655ce19d4972e57a547558c2","655ce19d4972e57a547558c2_20240207","","","","1","4","1048",""
"999","0","html-button-response","109","412955","0.0-109.0","655ce19d4972e57a547558c2","655ce19d4972e57a547558c2_20240207","","","","6","2","1760",""
"2031","0","html-button-response","110","415493","0.0-110.0","655ce19d4972e57a547558c2","655ce19d4972e57a547558c2_20240207","","","","6","7","3",""
"1867","0","html-button-response","111","417861","0.0-111.0","655ce19d4972e57a547558c2","655ce19d4972e57a547558c2_20240207","","","","5","5","1061",""
"1135","0","html-button-response","112","419503","0.0-112.0","655ce19d4972e57a547558c2","655ce19d4972e57a547558c2_20240207","","","","6","8","536",""
"1534","0","html-button-response","113","421542","0.0-113.0","655ce19d4972e57a547558c2","655ce19d4972e57a547558c2_20240207","","","","1","5","1828",""
"1284","0","html-button-response","114","423332","0.0-114.0","655ce19d4972e57a547558c2","655ce19d4972e57a547558c2_20240207","","","","1","6","554",""
"1166","0","html-button-response","115","425001","0.0-115.0","655ce19d4972e57a547558c2","655ce19d4972e57a547558c2_20240207","","","","6","3","768",""
"2966","0","html-button-response","116","428477","0.0-116.0","655ce19d4972e57a547558c2","655ce19d4972e57a547558c2_20240207","","","","5","2","1738",""
"1304","0","html-button-response","117","430287","0.0-117.0","655ce19d4972e57a547558c2","655ce19d4972e57a547558c2_20240207","","","","5","3","814",""
"1430","0","html-button-response","118","432228","0.0-118.0","655ce19d4972e57a547558c2","655ce19d4972e57a547558c2_20240207","","","","3","3","1704",""
"2777","0","html-button-response","119","435521","0.0-119.0","655ce19d4972e57a547558c2","655ce19d4972e57a547558c2_20240207","","","","5","6","1984",""
"1930","0","html-button-response","120","437959","0.0-120.0","655ce19d4972e57a547558c2","655ce19d4972e57a547558c2_20240207","","","","2","3","980",""
"1774","0","html-button-response","121","440236","0.0-121.0","655ce19d4972e57a547558c2","655ce19d4972e57a547558c2_20240207","","","","6","3","925",""
"2310","0","html-button-response","122","443054","0.0-122.0","655ce19d4972e57a547558c2","655ce19d4972e57a547558c2_20240207","","","","6","7","1998",""
"2621","0","html-button-response","123","446193","0.0-123.0","655ce19d4972e57a547558c2","655ce19d4972e57a547558c2_20240207","","","","5","3","1169",""
"2156","0","html-button-response","124","448859","0.0-124.0","655ce19d4972e57a547558c2","655ce19d4972e57a547558c2_20240207","","","","1","4","1121",""
"1885","0","html-button-response","125","451251","0.0-125.0","655ce19d4972e57a547558c2","655ce19d4972e57a547558c2_20240207","","","","1","5","1204",""
"1266","0","html-button-response","126","453025","0.0-126.0","655ce19d4972e57a547558c2","655ce19d4972e57a547558c2_20240207","","","","5","2","1989",""
"1297","0","html-button-response","127","454836","0.0-127.0","655ce19d4972e57a547558c2","655ce19d4972e57a547558c2_20240207","","","","7","1","1468",""
"24765","0","html-button-response","128","480106","0.0-128.0","655ce19d4972e57a547558c2","655ce19d4972e57a547558c2_20240207","","","","6","7","1015",""
"2277","0","html-button-response","129","482893","0.0-129.0","655ce19d4972e57a547558c2","655ce19d4972e57a547558c2_20240207","","","","4","3","1494",""
"3446","0","html-button-response","130","486842","0.0-130.0","655ce19d4972e57a547558c2","655ce19d4972e57a547558c2_20240207","","","","5","5","1159",""
"1704","0","html-button-response","131","489056","0.0-131.0","655ce19d4972e57a547558c2","655ce19d4972e57a547558c2_20240207","","","","5","5","1158",""
"6554","0","html-button-response","132","496114","0.0-132.0","655ce19d4972e57a547558c2","655ce19d4972e57a547558c2_20240207","","","","5","5","1347",""
"2778","0","html-button-response","133","499397","0.0-133.0","655ce19d4972e57a547558c2","655ce19d4972e57a547558c2_20240207","","","","1","5","1598",""
"2817","0","html-button-response","134","502723","0.0-134.0","655ce19d4972e57a547558c2","655ce19d4972e57a547558c2_20240207","","","","4","2","1072",""
"3043","0","html-button-response","135","506268","0.0-135.0","655ce19d4972e57a547558c2","655ce19d4972e57a547558c2_20240207","","","","7","8","2055",""
"3405","0","html-button-response","136","510177","0.0-136.0","655ce19d4972e57a547558c2","655ce19d4972e57a547558c2_20240207","","","","5","1","1636",""
"2417","0","html-button-response","137","513099","0.0-137.0","655ce19d4972e57a547558c2","655ce19d4972e57a547558c2_20240207","","","","5","6","1965",""
"3178","0","html-button-response","138","516787","0.0-138.0","655ce19d4972e57a547558c2","655ce19d4972e57a547558c2_20240207","","","","5","8","198",""
"3681","0","html-button-response","139","520974","0.0-139.0","655ce19d4972e57a547558c2","655ce19d4972e57a547558c2_20240207","","","","5","4","1160",""
"3776","0","html-button-response","140","525253","0.0-140.0","655ce19d4972e57a547558c2","655ce19d4972e57a547558c2_20240207","","","","7","7","2149",""
"2262","0","html-button-response","141","528022","0.0-141.0","655ce19d4972e57a547558c2","655ce19d4972e57a547558c2_20240207","","","","7","7","1865",""
"2729","0","html-button-response","142","531258","0.0-142.0","655ce19d4972e57a547558c2","655ce19d4972e57a547558c2_20240207","","","","5","4","293",""
"4072","0","html-button-response","143","535850","0.0-143.0","655ce19d4972e57a547558c2","655ce19d4972e57a547558c2_20240207","","","","5","1","440",""
"3799","0","html-button-response","144","540167","0.0-144.0","655ce19d4972e57a547558c2","655ce19d4972e57a547558c2_20240207","","","","4","3","854",""
"3283","0","html-button-response","145","543957","0.0-145.0","655ce19d4972e57a547558c2","655ce19d4972e57a547558c2_20240207","","","","5","3","1359",""
"3883","0","html-button-response","146","548343","0.0-146.0","655ce19d4972e57a547558c2","655ce19d4972e57a547558c2_20240207","","","","7","8","1188",""
"4607","0","html-button-response","147","553459","0.0-147.0","655ce19d4972e57a547558c2","655ce19d4972e57a547558c2_20240207","","","","1","5","1538",""
"1929","0","html-button-response","148","555897","0.0-148.0","655ce19d4972e57a547558c2","655ce19d4972e57a547558c2_20240207","","","","5","8","222",""
"2671","0","html-button-response","149","559085","0.0-149.0","655ce19d4972e57a547558c2","655ce19d4972e57a547558c2_20240207","","","","6","6","474",""
"2512","0","html-button-response","150","562116","0.0-150.0","655ce19d4972e57a547558c2","655ce19d4972e57a547558c2_20240207","","","","5","3","695",""
"3120","0","html-button-response","151","565751","0.0-151.0","655ce19d4972e57a547558c2","655ce19d4972e57a547558c2_20240207","","","","1","5","1789",""
"2685","0","html-button-response","152","568942","0.0-152.0","655ce19d4972e57a547558c2","655ce19d4972e57a547558c2_20240207","","","","5","6","876",""
"4193","0","html-button-response","153","573648","0.0-153.0","655ce19d4972e57a547558c2","655ce19d4972e57a547558c2_20240207","","","","5","1","1244",""
"11492","0","html-button-response","154","585658","0.0-154.0","655ce19d4972e57a547558c2","655ce19d4972e57a547558c2_20240207","","","","5","2","1963",""
"3919","0","html-button-response","155","590083","0.0-155.0","655ce19d4972e57a547558c2","655ce19d4972e57a547558c2_20240207","","","","5","1","931",""
"1915","0","html-button-response","156","592506","0.0-156.0","655ce19d4972e57a547558c2","655ce19d4972e57a547558c2_20240207","","","","5","5","1826",""
"1865","0","html-button-response","157","594905","0.0-157.0","655ce19d4972e57a547558c2","655ce19d4972e57a547558c2_20240207","","","","5","1","1232",""
"2288","0","html-button-response","158","597704","0.0-158.0","655ce19d4972e57a547558c2","655ce19d4972e57a547558c2_20240207","","","","1","5","1109",""
"2187","0","html-button-response","159","600397","0.0-159.0","655ce19d4972e57a547558c2","655ce19d4972e57a547558c2_20240207","","","","9","5","27",""
"2569","0","html-button-response","160","603476","0.0-160.0","655ce19d4972e57a547558c2","655ce19d4972e57a547558c2_20240207","","","","3","2","1023",""
"4353","0","html-button-response","161","608344","0.0-161.0","655ce19d4972e57a547558c2","655ce19d4972e57a547558c2_20240207","","","","5","8","2099",""
"9720","0","html-button-response","162","618573","0.0-162.0","655ce19d4972e57a547558c2","655ce19d4972e57a547558c2_20240207","","","","7","1","1077",""
"2185","0","html-button-response","163","621270","0.0-163.0","655ce19d4972e57a547558c2","655ce19d4972e57a547558c2_20240207","","","","1","5","54",""
"1777","0","html-button-response","164","623550","0.0-164.0","655ce19d4972e57a547558c2","655ce19d4972e57a547558c2_20240207","","","","6","2","1114",""
"2150","0","html-button-response","165","626208","0.0-165.0","655ce19d4972e57a547558c2","655ce19d4972e57a547558c2_20240207","","","","6","2","1501",""
"2086","0","html-button-response","166","628801","0.0-166.0","655ce19d4972e57a547558c2","655ce19d4972e57a547558c2_20240207","","","","6","3","266",""
"1544","0","html-button-response","167","630850","0.0-167.0","655ce19d4972e57a547558c2","655ce19d4972e57a547558c2_20240207","","","","6","7","524",""
"2054","0","html-button-response","168","633414","0.0-168.0","655ce19d4972e57a547558c2","655ce19d4972e57a547558c2_20240207","","","","5","1","1374",""
"1902","0","html-button-response","169","635831","0.0-169.0","655ce19d4972e57a547558c2","655ce19d4972e57a547558c2_20240207","","","","1","5","1440",""
"1523","0","html-button-response","170","637860","0.0-170.0","655ce19d4972e57a547558c2","655ce19d4972e57a547558c2_20240207","","","","2","3","1650",""
"4572","0","html-button-response","171","642939","0.0-171.0","655ce19d4972e57a547558c2","655ce19d4972e57a547558c2_20240207","","","","5","2","1872",""
"1402","0","html-button-response","172","644845","0.0-172.0","655ce19d4972e57a547558c2","655ce19d4972e57a547558c2_20240207","","","","1","4","1503",""
"2401","0","html-button-response","173","647754","0.0-173.0","655ce19d4972e57a547558c2","655ce19d4972e57a547558c2_20240207","","","","4","1","1531",""
"2431","0","html-button-response","174","650691","0.0-174.0","655ce19d4972e57a547558c2","655ce19d4972e57a547558c2_20240207","","","","2","6","1901",""
"2321","0","html-button-response","175","653520","0.0-175.0","655ce19d4972e57a547558c2","655ce19d4972e57a547558c2_20240207","","","","5","7","1273",""
"2133","0","html-button-response","176","656176","0.0-176.0","655ce19d4972e57a547558c2","655ce19d4972e57a547558c2_20240207","","","","5","3","2152",""
"2864","0","html-button-response","177","659550","0.0-177.0","655ce19d4972e57a547558c2","655ce19d4972e57a547558c2_20240207","","","","1","6","1488",""
"1743","0","html-button-response","178","661798","0.0-178.0","655ce19d4972e57a547558c2","655ce19d4972e57a547558c2_20240207","","","","2","2","942",""
"1697","0","html-button-response","179","664001","0.0-179.0","655ce19d4972e57a547558c2","655ce19d4972e57a547558c2_20240207","","","","5","3","162",""
"2122","0","html-button-response","180","666633","0.0-180.0","655ce19d4972e57a547558c2","655ce19d4972e57a547558c2_20240207","","","","4","5","1847",""
"3131","0","html-button-response","181","670270","0.0-181.0","655ce19d4972e57a547558c2","655ce19d4972e57a547558c2_20240207","","","","6","3","109",""
"2397","0","html-button-response","182","673171","0.0-182.0","655ce19d4972e57a547558c2","655ce19d4972e57a547558c2_20240207","","","","4","2","37",""
"3264","0","html-button-response","183","676939","0.0-183.0","655ce19d4972e57a547558c2","655ce19d4972e57a547558c2_20240207","","","","8","4","573",""
"1627","0","html-button-response","184","679072","0.0-184.0","655ce19d4972e57a547558c2","655ce19d4972e57a547558c2_20240207","","","","5","2","937",""
"986","0","html-button-response","185","680570","0.0-185.0","655ce19d4972e57a547558c2","655ce19d4972e57a547558c2_20240207","","","","6","2","2039",""
"1483","0","html-button-response","186","682556","0.0-186.0","655ce19d4972e57a547558c2","655ce19d4972e57a547558c2_20240207","","","","6","2","902",""
"1598","0","html-button-response","187","684671","0.0-187.0","655ce19d4972e57a547558c2","655ce19d4972e57a547558c2_20240207","","","","1","4","2122",""
"1008","0","html-button-response","188","686189","0.0-188.0","655ce19d4972e57a547558c2","655ce19d4972e57a547558c2_20240207","","","","6","2","241",""
"1776","0","html-button-response","189","688468","0.0-189.0","655ce19d4972e57a547558c2","655ce19d4972e57a547558c2_20240207","","","","3","3","225",""
"1980","0","html-button-response","190","690958","0.0-190.0","655ce19d4972e57a547558c2","655ce19d4972e57a547558c2_20240207","","","","7","2","1571",""
"1858","0","html-button-response","191","693320","0.0-191.0","655ce19d4972e57a547558c2","655ce19d4972e57a547558c2_20240207","","","","5","2","2064",""
"1531","0","html-button-response","192","695367","0.0-192.0","655ce19d4972e57a547558c2","655ce19d4972e57a547558c2_20240207","","","","2","1","1646",""
"1255","0","html-button-response","193","697127","0.0-193.0","655ce19d4972e57a547558c2","655ce19d4972e57a547558c2_20240207","","","","6","2","44",""
"1240","0","html-button-response","194","698872","0.0-194.0","655ce19d4972e57a547558c2","655ce19d4972e57a547558c2_20240207","","","","6","2","1867",""
"984","0","html-button-response","195","700366","0.0-195.0","655ce19d4972e57a547558c2","655ce19d4972e57a547558c2_20240207","","","","1","3","70",""
"1762","0","html-button-response","196","702633","0.0-196.0","655ce19d4972e57a547558c2","655ce19d4972e57a547558c2_20240207","","","","6","2","1155",""
"1346","0","html-button-response","197","704491","0.0-197.0","655ce19d4972e57a547558c2","655ce19d4972e57a547558c2_20240207","","","","6","3","774",""
"2517","0","html-button-response","198","707511","0.0-198.0","655ce19d4972e57a547558c2","655ce19d4972e57a547558c2_20240207","","","","6","1","819",""
"3253","0","html-button-response","199","711271","0.0-199.0","655ce19d4972e57a547558c2","655ce19d4972e57a547558c2_20240207","","","","8","6","291",""
"2011","0","html-button-response","200","713791","0.0-200.0","655ce19d4972e57a547558c2","655ce19d4972e57a547558c2_20240207","","","","5","5","1138",""
"2891","0","html-button-response","201","717189","0.0-201.0","655ce19d4972e57a547558c2","655ce19d4972e57a547558c2_20240207","","","","5","2","699",""
"2617","0","html-button-response","202","720312","0.0-202.0","655ce19d4972e57a547558c2","655ce19d4972e57a547558c2_20240207","","","","5","1","167",""
"3012","0","html-button-response","203","723833","0.0-203.0","655ce19d4972e57a547558c2","655ce19d4972e57a547558c2_20240207","","","","7","7","564",""
"2348","0","html-button-response","204","726694","0.0-204.0","655ce19d4972e57a547558c2","655ce19d4972e57a547558c2_20240207","","","","5","5","1509",""
"3409","0","html-button-response","205","730617","0.0-205.0","655ce19d4972e57a547558c2","655ce19d4972e57a547558c2_20240207","","","","7","5","189",""
"1505","0","html-button-response","206","732635","0.0-206.0","655ce19d4972e57a547558c2","655ce19d4972e57a547558c2_20240207","","","","5","5","1999",""
"3424","0","html-button-response","207","736567","0.0-207.0","655ce19d4972e57a547558c2","655ce19d4972e57a547558c2_20240207","","","","7","8","1239",""
"2370","0","html-button-response","208","739439","0.0-208.0","655ce19d4972e57a547558c2","655ce19d4972e57a547558c2_20240207","","","","3","1","584",""
"2278","0","html-button-response","209","742222","0.0-209.0","655ce19d4972e57a547558c2","655ce19d4972e57a547558c2_20240207","","","","1","5","2013",""
"1903","0","html-button-response","210","744629","0.0-210.0","655ce19d4972e57a547558c2","655ce19d4972e57a547558c2_20240207","","","","1","5","2195",""
"2761","0","html-button-response","211","747897","0.0-211.0","655ce19d4972e57a547558c2","655ce19d4972e57a547558c2_20240207","","","","8","1","1702",""
"2037","0","html-button-response","212","750443","0.0-212.0","655ce19d4972e57a547558c2","655ce19d4972e57a547558c2_20240207","","","","6","2","1147",""
"1997","0","html-button-response","213","752945","0.0-213.0","655ce19d4972e57a547558c2","655ce19d4972e57a547558c2_20240207","","","","5","2","25",""
"2073","0","html-button-response","214","755523","0.0-214.0","655ce19d4972e57a547558c2","655ce19d4972e57a547558c2_20240207","","","","6","2","2021",""
"2763","0","html-button-response","215","758802","0.0-215.0","655ce19d4972e57a547558c2","655ce19d4972e57a547558c2_20240207","","","","2","4","1078",""
"3038","0","html-button-response","216","762344","0.0-216.0","655ce19d4972e57a547558c2","655ce19d4972e57a547558c2_20240207","","","","6","7","369",""
"3358","0","html-button-response","217","766211","0.0-217.0","655ce19d4972e57a547558c2","655ce19d4972e57a547558c2_20240207","","","","5","6","1512",""
"2574","0","html-button-response","218","769289","0.0-218.0","655ce19d4972e57a547558c2","655ce19d4972e57a547558c2_20240207","","","","8","5","31",""
"4042","0","html-button-response","219","773848","0.0-219.0","655ce19d4972e57a547558c2","655ce19d4972e57a547558c2_20240207","","","","5","5","2016",""
"3390","0","html-button-response","220","777742","0.0-220.0","655ce19d4972e57a547558c2","655ce19d4972e57a547558c2_20240207","","","","5","9","1891",""
"2774","0","html-button-response","221","781025","0.0-221.0","655ce19d4972e57a547558c2","655ce19d4972e57a547558c2_20240207","","","","5","2","661",""
"1965","0","html-button-response","222","783518","0.0-222.0","655ce19d4972e57a547558c2","655ce19d4972e57a547558c2_20240207","","","","5","5","1642",""
"4314","0","html-button-response","223","788336","0.0-223.0","655ce19d4972e57a547558c2","655ce19d4972e57a547558c2_20240207","","","","4","2","219",""
"8857","0","html-button-response","224","797708","0.0-224.0","655ce19d4972e57a547558c2","655ce19d4972e57a547558c2_20240207","","","","5","2","765",""
"2978","0","html-button-response","225","801204","0.0-225.0","655ce19d4972e57a547558c2","655ce19d4972e57a547558c2_20240207","","","Thank you. You have reached the end. 
                       <br>Click the button below to reveal your compensation.
                        <br><br>","","","","1746,1939,671,1274,1398,1797,2144,669,28,992,859,118,425,811,244,825,920,1873,1092,587,1607,55,1410,747,448,1792,1587,374,1055,1111,1248,1404,1681,874,120,916,1088,2100,1122,79,600,1994,1272,177,516,486,736,731,437,1678,1708,1218,116,1668,1558,685,1116,210,1014,1219,504,1555,1305,1625,1985,1679,1946,767,76,1937,1655,1648,2014,66,318,349,5,1764,435,861,1178,1949,1590,569,348,927,1631,301,1924,940,2032,1040,1090,65,806,780,2153,1686,2169,2026,262,16,599,1048,1760,3,1061,536,1828,554,768,1738,814,1704,1984,980,925,1998,1169,1121,1204,1989,1468,1015,1494,1159,1158,1347,1598,1072,2055,1636,1965,198,1160,2149,1865,293,440,854,1359,1188,1538,222,474,695,1789,876,1244,1963,931,1826,1232,1109,27,1023,2099,1077,54,1114,1501,266,524,1374,1440,1650,1872,1503,1531,1901,1273,2152,1488,942,162,1847,109,37,573,937,2039,902,2122,241,225,1571,2064,1646,44,1867,70,1155,774,819,291,1138,699,167,564,1509,189,1999,1239,584,2013,2195,1702,1147,25,2021,1078,369,1512,31,2016,1891,661,1642,219,765"
