"rt","response","trial_type","trial_index","time_elapsed","internal_node_id","part_ID","ID_DATE","screen_id","understand_correct","stimulus","arousal","valence","img_id","tested_trial_idx"
"8221","0","html-button-response","0","8235","0.0-0.0","6464dc39528181c001c5d141","6464dc39528181c001c5d141_20240207","","","","","","",""
"23335","[object Object]","survey-html-form","1","32081","0.0-1.0","6464dc39528181c001c5d141","6464dc39528181c001c5d141_20240207","prolific_id_page","","","","","",""
"208464","0","html-button-response","2","240551","0.0-2.0","6464dc39528181c001c5d141","6464dc39528181c001c5d141_20240207","","","","","","",""
"267087","0","html-button-response","3","508147","0.0-3.0-0.0","6464dc39528181c001c5d141","6464dc39528181c001c5d141_20240207","","true","","","","",""
"3881","0","html-button-response","4","512538","0.0-4.0","6464dc39528181c001c5d141","6464dc39528181c001c5d141_20240207","","","
<div>
Great! You will now go on to rate the faces.
<br><br>
</div>
","","","",""
"17110","0","html-button-response","5","530160","0.0-5.0","6464dc39528181c001c5d141","6464dc39528181c001c5d141_20240207","","","","9","5","1801",""
"9626","0","html-button-response","6","540292","0.0-6.0","6464dc39528181c001c5d141","6464dc39528181c001c5d141_20240207","","","","2","4","318",""
"12956","0","html-button-response","7","553754","0.0-7.0","6464dc39528181c001c5d141","6464dc39528181c001c5d141_20240207","","","","6","4","1929",""
"11655","0","html-button-response","8","565917","0.0-8.0","6464dc39528181c001c5d141","6464dc39528181c001c5d141_20240207","","","","5","5","417",""
"4283","0","html-button-response","9","570708","0.0-9.0","6464dc39528181c001c5d141","6464dc39528181c001c5d141_20240207","","","","5","5","410",""
"49879","0","html-button-response","10","621092","0.0-10.0","6464dc39528181c001c5d141","6464dc39528181c001c5d141_20240207","","","","2","8","1809",""
"5097","0","html-button-response","11","626697","0.0-11.0","6464dc39528181c001c5d141","6464dc39528181c001c5d141_20240207","","","","7","6","2075",""
"8313","0","html-button-response","12","635517","0.0-12.0","6464dc39528181c001c5d141","6464dc39528181c001c5d141_20240207","","","","7","7","1972",""
"9991","0","html-button-response","13","646016","0.0-13.0","6464dc39528181c001c5d141","6464dc39528181c001c5d141_20240207","","","","1","8","936",""
"6928","0","html-button-response","14","653450","0.0-14.0","6464dc39528181c001c5d141","6464dc39528181c001c5d141_20240207","","","","9","8","2063",""
"10108","0","html-button-response","15","664065","0.0-15.0","6464dc39528181c001c5d141","6464dc39528181c001c5d141_20240207","","","","2","8","1009",""
"23402","0","html-button-response","16","687974","0.0-16.0","6464dc39528181c001c5d141","6464dc39528181c001c5d141_20240207","","","","5","2","1775",""
"3526","0","html-button-response","17","692005","0.0-17.0","6464dc39528181c001c5d141","6464dc39528181c001c5d141_20240207","","","","3","4","1325",""
"2386","0","html-button-response","18","694897","0.0-18.0","6464dc39528181c001c5d141","6464dc39528181c001c5d141_20240207","","","","4","8","1653",""
"2058","0","html-button-response","19","697459","0.0-19.0","6464dc39528181c001c5d141","6464dc39528181c001c5d141_20240207","","","","9","3","1496",""
"1721","0","html-button-response","20","699687","0.0-20.0","6464dc39528181c001c5d141","6464dc39528181c001c5d141_20240207","","","","9","8","2024",""
"2044","0","html-button-response","21","702238","0.0-21.0","6464dc39528181c001c5d141","6464dc39528181c001c5d141_20240207","","","","9","9","697",""
"1768","0","html-button-response","22","704513","0.0-22.0","6464dc39528181c001c5d141","6464dc39528181c001c5d141_20240207","","","","5","1","1676",""
"3121","0","html-button-response","23","708140","0.0-23.0","6464dc39528181c001c5d141","6464dc39528181c001c5d141_20240207","","","","8","2","1117",""
"5549","0","html-button-response","24","714196","0.0-24.0","6464dc39528181c001c5d141","6464dc39528181c001c5d141_20240207","","","","5","9","804",""
"3904","0","html-button-response","25","718606","0.0-25.0","6464dc39528181c001c5d141","6464dc39528181c001c5d141_20240207","","","","7","8","275",""
"10409","0","html-button-response","26","729521","0.0-26.0","6464dc39528181c001c5d141","6464dc39528181c001c5d141_20240207","","","","1","4","2194",""
"28878","0","html-button-response","27","758906","0.0-27.0","6464dc39528181c001c5d141","6464dc39528181c001c5d141_20240207","","","","6","1","302",""
"10340","0","html-button-response","28","769753","0.0-28.0","6464dc39528181c001c5d141","6464dc39528181c001c5d141_20240207","","","","1","6","1233",""
"4968","0","html-button-response","29","775230","0.0-29.0","6464dc39528181c001c5d141","6464dc39528181c001c5d141_20240207","","","","1","3","762",""
"3921","0","html-button-response","30","779657","0.0-30.0","6464dc39528181c001c5d141","6464dc39528181c001c5d141_20240207","","","","7","6","96",""
"2117","0","html-button-response","31","782281","0.0-31.0","6464dc39528181c001c5d141","6464dc39528181c001c5d141_20240207","","","","1","5","2054",""
"3288","0","html-button-response","32","786077","0.0-32.0","6464dc39528181c001c5d141","6464dc39528181c001c5d141_20240207","","","","3","7","841",""
"2988","0","html-button-response","33","789572","0.0-33.0","6464dc39528181c001c5d141","6464dc39528181c001c5d141_20240207","","","","7","4","1674",""
"2985","0","html-button-response","34","793065","0.0-34.0","6464dc39528181c001c5d141","6464dc39528181c001c5d141_20240207","","","","9","8","794",""
"3302","0","html-button-response","35","796874","0.0-35.0","6464dc39528181c001c5d141","6464dc39528181c001c5d141_20240207","","","","9","7","1306",""
"2338","0","html-button-response","36","799720","0.0-36.0","6464dc39528181c001c5d141","6464dc39528181c001c5d141_20240207","","","","9","1","1512",""
"1955","0","html-button-response","37","802182","0.0-37.0","6464dc39528181c001c5d141","6464dc39528181c001c5d141_20240207","","","","4","1","1870",""
"4252","0","html-button-response","38","806940","0.0-38.0","6464dc39528181c001c5d141","6464dc39528181c001c5d141_20240207","","","","5","8","242",""
"4902","0","html-button-response","39","812348","0.0-39.0","6464dc39528181c001c5d141","6464dc39528181c001c5d141_20240207","","","","6","2","75",""
"2305","0","html-button-response","40","815160","0.0-40.0","6464dc39528181c001c5d141","6464dc39528181c001c5d141_20240207","","","","7","1","786",""
"1974","0","html-button-response","41","817640","0.0-41.0","6464dc39528181c001c5d141","6464dc39528181c001c5d141_20240207","","","","7","7","2073",""
"1839","0","html-button-response","42","819986","0.0-42.0","6464dc39528181c001c5d141","6464dc39528181c001c5d141_20240207","","","","7","4","583",""
"1819","0","html-button-response","43","822313","0.0-43.0","6464dc39528181c001c5d141","6464dc39528181c001c5d141_20240207","","","","4","7","1433",""
"2057","0","html-button-response","44","824877","0.0-44.0","6464dc39528181c001c5d141","6464dc39528181c001c5d141_20240207","","","","4","2","577",""
"1689","0","html-button-response","45","827073","0.0-45.0","6464dc39528181c001c5d141","6464dc39528181c001c5d141_20240207","","","","1","4","1261",""
"2441","0","html-button-response","46","830020","0.0-46.0","6464dc39528181c001c5d141","6464dc39528181c001c5d141_20240207","","","","1","7","53",""
"1987","0","html-button-response","47","832514","0.0-47.0","6464dc39528181c001c5d141","6464dc39528181c001c5d141_20240207","","","","6","9","2178",""
"1891","0","html-button-response","48","834909","0.0-48.0","6464dc39528181c001c5d141","6464dc39528181c001c5d141_20240207","","","","5","1","102",""
"6748","0","html-button-response","49","842164","0.0-49.0","6464dc39528181c001c5d141","6464dc39528181c001c5d141_20240207","","","","5","5","2044",""
"3053","0","html-button-response","50","845725","0.0-50.0","6464dc39528181c001c5d141","6464dc39528181c001c5d141_20240207","","","","5","5","513",""
"3800","0","html-button-response","51","850031","0.0-51.0","6464dc39528181c001c5d141","6464dc39528181c001c5d141_20240207","","","","5","5","346",""
"4505","0","html-button-response","52","855043","0.0-52.0","6464dc39528181c001c5d141","6464dc39528181c001c5d141_20240207","","","","9","5","41",""
"2372","0","html-button-response","53","857922","0.0-53.0","6464dc39528181c001c5d141","6464dc39528181c001c5d141_20240207","","","","7","1","2125",""
"1804","0","html-button-response","54","860233","0.0-54.0","6464dc39528181c001c5d141","6464dc39528181c001c5d141_20240207","","","","5","8","1162",""
"1638","0","html-button-response","55","862378","0.0-55.0","6464dc39528181c001c5d141","6464dc39528181c001c5d141_20240207","","","","7","7","676",""
"1242","0","html-button-response","56","864127","0.0-56.0","6464dc39528181c001c5d141","6464dc39528181c001c5d141_20240207","","","","7","3","2060",""
"2189","0","html-button-response","57","866823","0.0-57.0","6464dc39528181c001c5d141","6464dc39528181c001c5d141_20240207","","","","2","8","2180",""
"3742","0","html-button-response","58","871070","0.0-58.0","6464dc39528181c001c5d141","6464dc39528181c001c5d141_20240207","","","","6","3","476",""
"13531","0","html-button-response","59","885109","0.0-59.0","6464dc39528181c001c5d141","6464dc39528181c001c5d141_20240207","","","","2","8","45",""
"3189","0","html-button-response","60","888804","0.0-60.0","6464dc39528181c001c5d141","6464dc39528181c001c5d141_20240207","","","","2","9","994",""
"2402","0","html-button-response","61","891713","0.0-61.0","6464dc39528181c001c5d141","6464dc39528181c001c5d141_20240207","","","","4","9","1329",""
"5403","0","html-button-response","62","897621","0.0-62.0","6464dc39528181c001c5d141","6464dc39528181c001c5d141_20240207","","","","7","5","889",""
"2272","0","html-button-response","63","900399","0.0-63.0","6464dc39528181c001c5d141","6464dc39528181c001c5d141_20240207","","","","5","2","1045",""
"3684","0","html-button-response","64","904589","0.0-64.0","6464dc39528181c001c5d141","6464dc39528181c001c5d141_20240207","","","","9","5","1381",""
"1939","0","html-button-response","65","907036","0.0-65.0","6464dc39528181c001c5d141","6464dc39528181c001c5d141_20240207","","","","2","7","1563",""
"1558","0","html-button-response","66","909100","0.0-66.0","6464dc39528181c001c5d141","6464dc39528181c001c5d141_20240207","","","","3","3","42",""
"1623","0","html-button-response","67","911228","0.0-67.0","6464dc39528181c001c5d141","6464dc39528181c001c5d141_20240207","","","","6","3","1947",""
"1357","0","html-button-response","68","913092","0.0-68.0","6464dc39528181c001c5d141","6464dc39528181c001c5d141_20240207","","","","6","8","1931",""
"1725","0","html-button-response","69","915324","0.0-69.0","6464dc39528181c001c5d141","6464dc39528181c001c5d141_20240207","","","","4","9","109",""
"1539","0","html-button-response","70","917371","0.0-70.0","6464dc39528181c001c5d141","6464dc39528181c001c5d141_20240207","","","","4","7","1735",""
"1636","0","html-button-response","71","919513","0.0-71.0","6464dc39528181c001c5d141","6464dc39528181c001c5d141_20240207","","","","2","8","317",""
"1540","0","html-button-response","72","921560","0.0-72.0","6464dc39528181c001c5d141","6464dc39528181c001c5d141_20240207","","","","4","7","548",""
"1911","0","html-button-response","73","923978","0.0-73.0","6464dc39528181c001c5d141","6464dc39528181c001c5d141_20240207","","","","5","1","819",""
"1535","0","html-button-response","74","926020","0.0-74.0","6464dc39528181c001c5d141","6464dc39528181c001c5d141_20240207","","","","3","1","349",""
"1693","0","html-button-response","75","928219","0.0-75.0","6464dc39528181c001c5d141","6464dc39528181c001c5d141_20240207","","","","8","9","495",""
"1670","0","html-button-response","76","930395","0.0-76.0","6464dc39528181c001c5d141","6464dc39528181c001c5d141_20240207","","","","4","9","1060",""
"1358","0","html-button-response","77","932260","0.0-77.0","6464dc39528181c001c5d141","6464dc39528181c001c5d141_20240207","","","","3","4","1948",""
"1306","0","html-button-response","78","934072","0.0-78.0","6464dc39528181c001c5d141","6464dc39528181c001c5d141_20240207","","","","3","3","2046",""
"2058","0","html-button-response","79","936639","0.0-79.0","6464dc39528181c001c5d141","6464dc39528181c001c5d141_20240207","","","","9","4","1012",""
"4731","0","html-button-response","80","941876","0.0-80.0","6464dc39528181c001c5d141","6464dc39528181c001c5d141_20240207","","","","9","6","677",""
"5136","0","html-button-response","81","947517","0.0-81.0","6464dc39528181c001c5d141","6464dc39528181c001c5d141_20240207","","","","9","5","136",""
"2339","0","html-button-response","82","950363","0.0-82.0","6464dc39528181c001c5d141","6464dc39528181c001c5d141_20240207","","","","1","6","829",""
"5000","0","html-button-response","83","955870","0.0-83.0","6464dc39528181c001c5d141","6464dc39528181c001c5d141_20240207","","","","6","1","811",""
"1992","0","html-button-response","84","958368","0.0-84.0","6464dc39528181c001c5d141","6464dc39528181c001c5d141_20240207","","","","2","8","2150",""
"1270","0","html-button-response","85","960146","0.0-85.0","6464dc39528181c001c5d141","6464dc39528181c001c5d141_20240207","","","","1","5","186",""
"2163","0","html-button-response","86","962813","0.0-86.0","6464dc39528181c001c5d141","6464dc39528181c001c5d141_20240207","","","","4","5","1063",""
"1683","0","html-button-response","87","965003","0.0-87.0","6464dc39528181c001c5d141","6464dc39528181c001c5d141_20240207","","","","6","4","2013",""
"1275","0","html-button-response","88","966785","0.0-88.0","6464dc39528181c001c5d141","6464dc39528181c001c5d141_20240207","","","","6","8","64",""
"1559","0","html-button-response","89","968850","0.0-89.0","6464dc39528181c001c5d141","6464dc39528181c001c5d141_20240207","","","","6","7","1231",""
"1625","0","html-button-response","90","970980","0.0-90.0","6464dc39528181c001c5d141","6464dc39528181c001c5d141_20240207","","","","5","1","956",""
"1805","0","html-button-response","91","973292","0.0-91.0","6464dc39528181c001c5d141","6464dc39528181c001c5d141_20240207","","","","6","4","1059",""
"1637","0","html-button-response","92","975436","0.0-92.0","6464dc39528181c001c5d141","6464dc39528181c001c5d141_20240207","","","","6","8","1277",""
"2589","0","html-button-response","93","978530","0.0-93.0","6464dc39528181c001c5d141","6464dc39528181c001c5d141_20240207","","","","9","5","485",""
"1743","0","html-button-response","94","980779","0.0-94.0","6464dc39528181c001c5d141","6464dc39528181c001c5d141_20240207","","","","5","6","1996",""
"1705","0","html-button-response","95","982991","0.0-95.0","6464dc39528181c001c5d141","6464dc39528181c001c5d141_20240207","","","","6","3","735",""
"1739","0","html-button-response","96","985237","0.0-96.0","6464dc39528181c001c5d141","6464dc39528181c001c5d141_20240207","","","","8","8","81",""
"2054","0","html-button-response","97","987798","0.0-97.0","6464dc39528181c001c5d141","6464dc39528181c001c5d141_20240207","","","","8","8","1057",""
"1842","0","html-button-response","98","990145","0.0-98.0","6464dc39528181c001c5d141","6464dc39528181c001c5d141_20240207","","","","5","1","1307",""
"1806","0","html-button-response","99","992455","0.0-99.0","6464dc39528181c001c5d141","6464dc39528181c001c5d141_20240207","","","","6","4","862",""
"1692","0","html-button-response","100","994655","0.0-100.0","6464dc39528181c001c5d141","6464dc39528181c001c5d141_20240207","","","","6","3","1505",""
"1570","0","html-button-response","101","996732","0.0-101.0","6464dc39528181c001c5d141","6464dc39528181c001c5d141_20240207","","","","6","2","733",""
"1890","0","html-button-response","102","999129","0.0-102.0","6464dc39528181c001c5d141","6464dc39528181c001c5d141_20240207","","","","8","6","411",""
"1206","0","html-button-response","103","1000842","0.0-103.0","6464dc39528181c001c5d141","6464dc39528181c001c5d141_20240207","","","","6","8","371",""
"1375","0","html-button-response","104","1002724","0.0-104.0","6464dc39528181c001c5d141","6464dc39528181c001c5d141_20240207","","","","6","6","1220",""
"1704","0","html-button-response","105","1004936","0.0-105.0","6464dc39528181c001c5d141","6464dc39528181c001c5d141_20240207","","","","4","3","1545",""
"1657","0","html-button-response","106","1007100","0.0-106.0","6464dc39528181c001c5d141","6464dc39528181c001c5d141_20240207","","","","4","5","38",""
"1824","0","html-button-response","107","1009430","0.0-107.0","6464dc39528181c001c5d141","6464dc39528181c001c5d141_20240207","","","","3","7","1481",""
"1737","0","html-button-response","108","1011675","0.0-108.0","6464dc39528181c001c5d141","6464dc39528181c001c5d141_20240207","","","","3","9","266",""
"1891","0","html-button-response","109","1014072","0.0-109.0","6464dc39528181c001c5d141","6464dc39528181c001c5d141_20240207","","","","3","1","1865",""
"1604","0","html-button-response","110","1016183","0.0-110.0","6464dc39528181c001c5d141","6464dc39528181c001c5d141_20240207","","","","5","2","229",""
"1959","0","html-button-response","111","1018649","0.0-111.0","6464dc39528181c001c5d141","6464dc39528181c001c5d141_20240207","","","","6","4","1854",""
"2102","0","html-button-response","112","1021258","0.0-112.0","6464dc39528181c001c5d141","6464dc39528181c001c5d141_20240207","","","","7","4","2015",""
"2107","0","html-button-response","113","1023871","0.0-113.0","6464dc39528181c001c5d141","6464dc39528181c001c5d141_20240207","","","","8","7","659",""
"4985","0","html-button-response","114","1029364","0.0-114.0","6464dc39528181c001c5d141","6464dc39528181c001c5d141_20240207","","","","9","5","803",""
"2104","0","html-button-response","115","1031974","0.0-115.0","6464dc39528181c001c5d141","6464dc39528181c001c5d141_20240207","","","","5","6","247",""
"15267","0","html-button-response","116","1047748","0.0-116.0","6464dc39528181c001c5d141","6464dc39528181c001c5d141_20240207","","","","5","2","157",""
"2802","0","html-button-response","117","1051055","0.0-117.0","6464dc39528181c001c5d141","6464dc39528181c001c5d141_20240207","","","","5","2","526",""
"1990","0","html-button-response","118","1053552","0.0-118.0","6464dc39528181c001c5d141","6464dc39528181c001c5d141_20240207","","","","5","3","60",""
"2010","0","html-button-response","119","1056067","0.0-119.0","6464dc39528181c001c5d141","6464dc39528181c001c5d141_20240207","","","","6","4","176",""
"2038","0","html-button-response","120","1058611","0.0-120.0","6464dc39528181c001c5d141","6464dc39528181c001c5d141_20240207","","","","7","5","52",""
"1792","0","html-button-response","121","1060908","0.0-121.0","6464dc39528181c001c5d141","6464dc39528181c001c5d141_20240207","","","","6","4","630",""
"1605","0","html-button-response","122","1063021","0.0-122.0","6464dc39528181c001c5d141","6464dc39528181c001c5d141_20240207","","","","6","3","1550",""
"3168","0","html-button-response","123","1066696","0.0-123.0","6464dc39528181c001c5d141","6464dc39528181c001c5d141_20240207","","","","8","5","1744",""
"1920","0","html-button-response","124","1069126","0.0-124.0","6464dc39528181c001c5d141","6464dc39528181c001c5d141_20240207","","","","5","7","303",""
"2408","0","html-button-response","125","1072041","0.0-125.0","6464dc39528181c001c5d141","6464dc39528181c001c5d141_20240207","","","","8","5","246",""
"4382","0","html-button-response","126","1076930","0.0-126.0","6464dc39528181c001c5d141","6464dc39528181c001c5d141_20240207","","","","4","2","1677",""
"1936","0","html-button-response","127","1079375","0.0-127.0","6464dc39528181c001c5d141","6464dc39528181c001c5d141_20240207","","","","6","3","430",""
"1028","0","html-button-response","128","1080910","0.0-128.0","6464dc39528181c001c5d141","6464dc39528181c001c5d141_20240207","","","","6","4","2106",""
"907","0","html-button-response","129","1082323","0.0-129.0","6464dc39528181c001c5d141","6464dc39528181c001c5d141_20240207","","","","5","9","225",""
"858","0","html-button-response","130","1083687","0.0-130.0","6464dc39528181c001c5d141","6464dc39528181c001c5d141_20240207","","","","6","7","272",""
"927","0","html-button-response","131","1085120","0.0-131.0","6464dc39528181c001c5d141","6464dc39528181c001c5d141_20240207","","","","5","7","2159",""
"872","0","html-button-response","132","1086499","0.0-132.0","6464dc39528181c001c5d141","6464dc39528181c001c5d141_20240207","","","","5","3","235",""
"1710","0","html-button-response","133","1088714","0.0-133.0","6464dc39528181c001c5d141","6464dc39528181c001c5d141_20240207","","","","8","5","2051",""
"1719","0","html-button-response","134","1090941","0.0-134.0","6464dc39528181c001c5d141","6464dc39528181c001c5d141_20240207","","","","5","7","1842",""
"1673","0","html-button-response","135","1093121","0.0-135.0","6464dc39528181c001c5d141","6464dc39528181c001c5d141_20240207","","","","5","3","43",""
"2355","0","html-button-response","136","1095984","0.0-136.0","6464dc39528181c001c5d141","6464dc39528181c001c5d141_20240207","","","","8","4","1887",""
"1573","0","html-button-response","137","1098063","0.0-137.0","6464dc39528181c001c5d141","6464dc39528181c001c5d141_20240207","","","","4","6","1620",""
"2506","0","html-button-response","138","1101075","0.0-138.0","6464dc39528181c001c5d141","6464dc39528181c001c5d141_20240207","","","","5","6","809",""
"4733","0","html-button-response","139","1106316","0.0-139.0","6464dc39528181c001c5d141","6464dc39528181c001c5d141_20240207","","","","7","6","429",""
"1773","0","html-button-response","140","1108595","0.0-140.0","6464dc39528181c001c5d141","6464dc39528181c001c5d141_20240207","","","","7","4","1248",""
"1693","0","html-button-response","141","1110792","0.0-141.0","6464dc39528181c001c5d141","6464dc39528181c001c5d141_20240207","","","","7","3","1574",""
"1604","0","html-button-response","142","1112904","0.0-142.0","6464dc39528181c001c5d141","6464dc39528181c001c5d141_20240207","","","","7","2","1891",""
"1741","0","html-button-response","143","1115151","0.0-143.0","6464dc39528181c001c5d141","6464dc39528181c001c5d141_20240207","","","","7","3","1556",""
"1639","0","html-button-response","144","1117297","0.0-144.0","6464dc39528181c001c5d141","6464dc39528181c001c5d141_20240207","","","","7","7","491",""
"1653","0","html-button-response","145","1119457","0.0-145.0","6464dc39528181c001c5d141","6464dc39528181c001c5d141_20240207","","","","6","3","1460",""
"1805","0","html-button-response","146","1121769","0.0-146.0","6464dc39528181c001c5d141","6464dc39528181c001c5d141_20240207","","","","5","4","645",""
"2624","0","html-button-response","147","1124899","0.0-147.0","6464dc39528181c001c5d141","6464dc39528181c001c5d141_20240207","","","","6","7","251",""
"1624","0","html-button-response","148","1127028","0.0-148.0","6464dc39528181c001c5d141","6464dc39528181c001c5d141_20240207","","","","6","9","943",""
"1759","0","html-button-response","149","1129294","0.0-149.0","6464dc39528181c001c5d141","6464dc39528181c001c5d141_20240207","","","","6","7","1342",""
"1674","0","html-button-response","150","1131475","0.0-150.0","6464dc39528181c001c5d141","6464dc39528181c001c5d141_20240207","","","","6","2","808",""
"1288","0","html-button-response","151","1133271","0.0-151.0","6464dc39528181c001c5d141","6464dc39528181c001c5d141_20240207","","","","5","5","532",""
"2338","0","html-button-response","152","1136114","0.0-152.0","6464dc39528181c001c5d141","6464dc39528181c001c5d141_20240207","","","","3","5","648",""
"2357","0","html-button-response","153","1138976","0.0-153.0","6464dc39528181c001c5d141","6464dc39528181c001c5d141_20240207","","","","8","3","1642",""
"1787","0","html-button-response","154","1141270","0.0-154.0","6464dc39528181c001c5d141","6464dc39528181c001c5d141_20240207","","","","8","8","1535",""
"2325","0","html-button-response","155","1144101","0.0-155.0","6464dc39528181c001c5d141","6464dc39528181c001c5d141_20240207","","","","5","9","1194",""
"1706","0","html-button-response","156","1146313","0.0-156.0","6464dc39528181c001c5d141","6464dc39528181c001c5d141_20240207","","","","5","2","285",""
"1941","0","html-button-response","157","1148759","0.0-157.0","6464dc39528181c001c5d141","6464dc39528181c001c5d141_20240207","","","","3","8","682",""
"1722","0","html-button-response","158","1150988","0.0-158.0","6464dc39528181c001c5d141","6464dc39528181c001c5d141_20240207","","","","3","2","915",""
"4153","0","html-button-response","159","1155646","0.0-159.0","6464dc39528181c001c5d141","6464dc39528181c001c5d141_20240207","","","","7","1","1465",""
"1790","0","html-button-response","160","1157942","0.0-160.0","6464dc39528181c001c5d141","6464dc39528181c001c5d141_20240207","","","","1","8","559",""
"5785","0","html-button-response","161","1164234","0.0-161.0","6464dc39528181c001c5d141","6464dc39528181c001c5d141_20240207","","","","2","1","477",""
"3170","0","html-button-response","162","1167910","0.0-162.0","6464dc39528181c001c5d141","6464dc39528181c001c5d141_20240207","","","","7","8","1040",""
"2970","0","html-button-response","163","1171387","0.0-163.0","6464dc39528181c001c5d141","6464dc39528181c001c5d141_20240207","","","","1","5","2183",""
"2023","0","html-button-response","164","1173917","0.0-164.0","6464dc39528181c001c5d141","6464dc39528181c001c5d141_20240207","","","","1","3","1803",""
"3838","0","html-button-response","165","1178261","0.0-165.0","6464dc39528181c001c5d141","6464dc39528181c001c5d141_20240207","","","","5","2","1241",""
"3186","0","html-button-response","166","1181952","0.0-166.0","6464dc39528181c001c5d141","6464dc39528181c001c5d141_20240207","","","","5","9","62",""
"4104","0","html-button-response","167","1186563","0.0-167.0","6464dc39528181c001c5d141","6464dc39528181c001c5d141_20240207","","","","8","4","1501",""
"2042","0","html-button-response","168","1189112","0.0-168.0","6464dc39528181c001c5d141","6464dc39528181c001c5d141_20240207","","","","4","6","1457",""
"7244","0","html-button-response","169","1196862","0.0-169.0","6464dc39528181c001c5d141","6464dc39528181c001c5d141_20240207","","","","4","3","121",""
"1885","0","html-button-response","170","1199254","0.0-170.0","6464dc39528181c001c5d141","6464dc39528181c001c5d141_20240207","","","","3","5","1380",""
"2841","0","html-button-response","171","1202602","0.0-171.0","6464dc39528181c001c5d141","6464dc39528181c001c5d141_20240207","","","","7","6","1256",""
"3339","0","html-button-response","172","1206448","0.0-172.0","6464dc39528181c001c5d141","6464dc39528181c001c5d141_20240207","","","","5","3","1186",""
"2403","0","html-button-response","173","1209358","0.0-173.0","6464dc39528181c001c5d141","6464dc39528181c001c5d141_20240207","","","","5","8","552",""
"5517","0","html-button-response","174","1215381","0.0-174.0","6464dc39528181c001c5d141","6464dc39528181c001c5d141_20240207","","","","2","7","1443",""
"7199","0","html-button-response","175","1223085","0.0-175.0","6464dc39528181c001c5d141","6464dc39528181c001c5d141_20240207","","","","5","5","752",""
"2855","0","html-button-response","176","1226447","0.0-176.0","6464dc39528181c001c5d141","6464dc39528181c001c5d141_20240207","","","","3","6","971",""
"2588","0","html-button-response","177","1229541","0.0-177.0","6464dc39528181c001c5d141","6464dc39528181c001c5d141_20240207","","","","5","5","366",""
"5298","0","html-button-response","178","1235346","0.0-178.0","6464dc39528181c001c5d141","6464dc39528181c001c5d141_20240207","","","","2","8","840",""
"1790","0","html-button-response","179","1237642","0.0-179.0","6464dc39528181c001c5d141","6464dc39528181c001c5d141_20240207","","","","3","4","265",""
"1589","0","html-button-response","180","1239738","0.0-180.0","6464dc39528181c001c5d141","6464dc39528181c001c5d141_20240207","","","","6","6","415",""
"1807","0","html-button-response","181","1242052","0.0-181.0","6464dc39528181c001c5d141","6464dc39528181c001c5d141_20240207","","","","6","5","1727",""
"1074","0","html-button-response","182","1243632","0.0-182.0","6464dc39528181c001c5d141","6464dc39528181c001c5d141_20240207","","","","4","4","8",""
"1541","0","html-button-response","183","1245680","0.0-183.0","6464dc39528181c001c5d141","6464dc39528181c001c5d141_20240207","","","","5","3","54",""
"1738","0","html-button-response","184","1247925","0.0-184.0","6464dc39528181c001c5d141","6464dc39528181c001c5d141_20240207","","","","6","4","1341",""
"1308","0","html-button-response","185","1249740","0.0-185.0","6464dc39528181c001c5d141","6464dc39528181c001c5d141_20240207","","","","5","2","73",""
"1906","0","html-button-response","186","1252153","0.0-186.0","6464dc39528181c001c5d141","6464dc39528181c001c5d141_20240207","","","","3","7","1614",""
"1502","0","html-button-response","187","1254161","0.0-187.0","6464dc39528181c001c5d141","6464dc39528181c001c5d141_20240207","","","","4","5","1576",""
"961","0","html-button-response","188","1255629","0.0-188.0","6464dc39528181c001c5d141","6464dc39528181c001c5d141_20240207","","","","4","3","1986",""
"1904","0","html-button-response","189","1258040","0.0-189.0","6464dc39528181c001c5d141","6464dc39528181c001c5d141_20240207","","","","7","5","1820",""
"4153","0","html-button-response","190","1262698","0.0-190.0","6464dc39528181c001c5d141","6464dc39528181c001c5d141_20240207","","","","6","8","766",""
"1724","0","html-button-response","191","1264930","0.0-191.0","6464dc39528181c001c5d141","6464dc39528181c001c5d141_20240207","","","","3","3","1087",""
"2088","0","html-button-response","192","1267524","0.0-192.0","6464dc39528181c001c5d141","6464dc39528181c001c5d141_20240207","","","","6","2","398",""
"1622","0","html-button-response","193","1269654","0.0-193.0","6464dc39528181c001c5d141","6464dc39528181c001c5d141_20240207","","","","4","7","1035",""
"2841","0","html-button-response","194","1273000","0.0-194.0","6464dc39528181c001c5d141","6464dc39528181c001c5d141_20240207","","","","1","9","182",""
"1507","0","html-button-response","195","1275012","0.0-195.0","6464dc39528181c001c5d141","6464dc39528181c001c5d141_20240207","","","","6","2","978",""
"1555","0","html-button-response","196","1277074","0.0-196.0","6464dc39528181c001c5d141","6464dc39528181c001c5d141_20240207","","","","6","4","1432",""
"4302","0","html-button-response","197","1281884","0.0-197.0","6464dc39528181c001c5d141","6464dc39528181c001c5d141_20240207","","","","9","1","1852",""
"6464","0","html-button-response","198","1288855","0.0-198.0","6464dc39528181c001c5d141","6464dc39528181c001c5d141_20240207","","","","5","9","244",""
"3354","0","html-button-response","199","1292717","0.0-199.0","6464dc39528181c001c5d141","6464dc39528181c001c5d141_20240207","","","","4","1","877",""
"7048","0","html-button-response","200","1300272","0.0-200.0","6464dc39528181c001c5d141","6464dc39528181c001c5d141_20240207","","","","1","9","1154",""
"3799","0","html-button-response","201","1304578","0.0-201.0","6464dc39528181c001c5d141","6464dc39528181c001c5d141_20240207","","","","7","1","1089",""
"4469","0","html-button-response","202","1309554","0.0-202.0","6464dc39528181c001c5d141","6464dc39528181c001c5d141_20240207","","","","8","5","1377",""
"2272","0","html-button-response","203","1312333","0.0-203.0","6464dc39528181c001c5d141","6464dc39528181c001c5d141_20240207","","","","4","3","2043",""
"3536","0","html-button-response","204","1316376","0.0-204.0","6464dc39528181c001c5d141","6464dc39528181c001c5d141_20240207","","","","4","7","1751",""
"1956","0","html-button-response","205","1318839","0.0-205.0","6464dc39528181c001c5d141","6464dc39528181c001c5d141_20240207","","","","5","8","785",""
"7280","0","html-button-response","206","1326623","0.0-206.0","6464dc39528181c001c5d141","6464dc39528181c001c5d141_20240207","","","","8","9","58",""
"3607","0","html-button-response","207","1330735","0.0-207.0","6464dc39528181c001c5d141","6464dc39528181c001c5d141_20240207","","","","6","7","146",""
"1971","0","html-button-response","208","1333214","0.0-208.0","6464dc39528181c001c5d141","6464dc39528181c001c5d141_20240207","","","","4","3","267",""
"1990","0","html-button-response","209","1335711","0.0-209.0","6464dc39528181c001c5d141","6464dc39528181c001c5d141_20240207","","","","5","7","1144",""
"1805","0","html-button-response","210","1338022","0.0-210.0","6464dc39528181c001c5d141","6464dc39528181c001c5d141_20240207","","","","6","4","2169",""
"1904","0","html-button-response","211","1340433","0.0-211.0","6464dc39528181c001c5d141","6464dc39528181c001c5d141_20240207","","","","5","3","888",""
"1707","0","html-button-response","212","1342647","0.0-212.0","6464dc39528181c001c5d141","6464dc39528181c001c5d141_20240207","","","","5","8","422",""
"1853","0","html-button-response","213","1345008","0.0-213.0","6464dc39528181c001c5d141","6464dc39528181c001c5d141_20240207","","","","7","3","1320",""
"1726","0","html-button-response","214","1347241","0.0-214.0","6464dc39528181c001c5d141","6464dc39528181c001c5d141_20240207","","","","7","6","1421",""
"2322","0","html-button-response","215","1350069","0.0-215.0","6464dc39528181c001c5d141","6464dc39528181c001c5d141_20240207","","","","7","5","512",""
"1920","0","html-button-response","216","1352496","0.0-216.0","6464dc39528181c001c5d141","6464dc39528181c001c5d141_20240207","","","","4","7","1413",""
"1588","0","html-button-response","217","1354591","0.0-217.0","6464dc39528181c001c5d141","6464dc39528181c001c5d141_20240207","","","","6","3","1343",""
"1627","0","html-button-response","218","1356723","0.0-218.0","6464dc39528181c001c5d141","6464dc39528181c001c5d141_20240207","","","","6","7","751",""
"1710","0","html-button-response","219","1358938","0.0-219.0","6464dc39528181c001c5d141","6464dc39528181c001c5d141_20240207","","","","5","3","838",""
"1722","0","html-button-response","220","1361166","0.0-220.0","6464dc39528181c001c5d141","6464dc39528181c001c5d141_20240207","","","","6","7","392",""
"1689","0","html-button-response","221","1363362","0.0-221.0","6464dc39528181c001c5d141","6464dc39528181c001c5d141_20240207","","","","7","4","861",""
"1706","0","html-button-response","222","1365575","0.0-222.0","6464dc39528181c001c5d141","6464dc39528181c001c5d141_20240207","","","","7","8","29",""
"1872","0","html-button-response","223","1367953","0.0-223.0","6464dc39528181c001c5d141","6464dc39528181c001c5d141_20240207","","","","7","3","734",""
"2605","0","html-button-response","224","1371065","0.0-224.0","6464dc39528181c001c5d141","6464dc39528181c001c5d141_20240207","","","","9","5","926",""
"4151","0","html-button-response","225","1375721","0.0-225.0","6464dc39528181c001c5d141","6464dc39528181c001c5d141_20240207","","","Thank you. You have reached the end. 
                       <br>Click the button below to reveal your compensation.
                        <br><br>","","","","1801,318,1929,417,410,1809,2075,1972,936,2063,1009,1775,1325,1653,1496,2024,697,1676,1117,804,275,2194,302,1233,762,96,2054,841,1674,794,1306,1512,1870,242,75,786,2073,583,1433,577,1261,53,2178,102,2044,513,346,41,2125,1162,676,2060,2180,476,45,994,1329,889,1045,1381,1563,42,1947,1931,109,1735,317,548,819,349,495,1060,1948,2046,1012,677,136,829,811,2150,186,1063,2013,64,1231,956,1059,1277,485,1996,735,81,1057,1307,862,1505,733,411,371,1220,1545,38,1481,266,1865,229,1854,2015,659,803,247,157,526,60,176,52,630,1550,1744,303,246,1677,430,2106,225,272,2159,235,2051,1842,43,1887,1620,809,429,1248,1574,1891,1556,491,1460,645,251,943,1342,808,532,648,1642,1535,1194,285,682,915,1465,559,477,1040,2183,1803,1241,62,1501,1457,121,1380,1256,1186,552,1443,752,971,366,840,265,415,1727,8,54,1341,73,1614,1576,1986,1820,766,1087,398,1035,182,978,1432,1852,244,877,1154,1089,1377,2043,1751,785,58,146,267,1144,2169,888,422,1320,1421,512,1413,1343,751,838,392,861,29,734,926"
