"rt","response","trial_type","trial_index","time_elapsed","internal_node_id","part_ID","ID_DATE","screen_id","understand_correct","stimulus","arousal","valence","img_id","tested_trial_idx"
"56973","0","html-button-response","0","56976","0.0-0.0","5ef9e7a8e1d3567a48fa1154","5ef9e7a8e1d3567a48fa1154_20240207","","","","","","",""
"7452","[object Object]","survey-html-form","1","64938","0.0-1.0","5ef9e7a8e1d3567a48fa1154","5ef9e7a8e1d3567a48fa1154_20240207","prolific_id_page","","","","","",""
"13167","0","html-button-response","2","78107","0.0-2.0","5ef9e7a8e1d3567a48fa1154","5ef9e7a8e1d3567a48fa1154_20240207","","","","","","",""
"11265","0","html-button-response","3","89890","0.0-3.0-0.0","5ef9e7a8e1d3567a48fa1154","5ef9e7a8e1d3567a48fa1154_20240207","","false","","","","",""
"5447","0","html-button-response","4","97563","0.0-3.1-0.1","5ef9e7a8e1d3567a48fa1154","5ef9e7a8e1d3567a48fa1154_20240207","","false","","","","",""
"25132","0","html-button-response","5","124546","0.0-3.2-0.2","5ef9e7a8e1d3567a48fa1154","5ef9e7a8e1d3567a48fa1154_20240207","","false","","","","",""
"27592","0","html-button-response","6","154008","0.0-3.3-0.3","5ef9e7a8e1d3567a48fa1154","5ef9e7a8e1d3567a48fa1154_20240207","","false","","","","",""
"29398","0","html-button-response","7","185965","0.0-3.4-0.4","5ef9e7a8e1d3567a48fa1154","5ef9e7a8e1d3567a48fa1154_20240207","","true","","","","",""
"1043","0","html-button-response","8","187517","0.0-4.0","5ef9e7a8e1d3567a48fa1154","5ef9e7a8e1d3567a48fa1154_20240207","","","
<div>
Great! You will now go on to rate the faces.
<br><br>
</div>
","","","",""
"4421","0","html-button-response","9","192445","0.0-5.0","5ef9e7a8e1d3567a48fa1154","5ef9e7a8e1d3567a48fa1154_20240207","","","","5","1","87",""
"5151","0","html-button-response","10","198100","0.0-6.0","5ef9e7a8e1d3567a48fa1154","5ef9e7a8e1d3567a48fa1154_20240207","","","","9","6","1864",""
"3398","0","html-button-response","11","202001","0.0-7.0","5ef9e7a8e1d3567a48fa1154","5ef9e7a8e1d3567a48fa1154_20240207","","","","5","5","304",""
"5093","0","html-button-response","12","207602","0.0-8.0","5ef9e7a8e1d3567a48fa1154","5ef9e7a8e1d3567a48fa1154_20240207","","","","5","2","200",""
"7598","0","html-button-response","13","215703","0.0-9.0","5ef9e7a8e1d3567a48fa1154","5ef9e7a8e1d3567a48fa1154_20240207","","","","8","8","1421",""
"2633","0","html-button-response","14","218839","0.0-10.0","5ef9e7a8e1d3567a48fa1154","5ef9e7a8e1d3567a48fa1154_20240207","","","","9","9","1876",""
"2408","0","html-button-response","15","221749","0.0-11.0","5ef9e7a8e1d3567a48fa1154","5ef9e7a8e1d3567a48fa1154_20240207","","","","9","9","2056",""
"2512","0","html-button-response","16","224763","0.0-12.0","5ef9e7a8e1d3567a48fa1154","5ef9e7a8e1d3567a48fa1154_20240207","","","","9","9","1201",""
"3872","0","html-button-response","17","229143","0.0-13.0","5ef9e7a8e1d3567a48fa1154","5ef9e7a8e1d3567a48fa1154_20240207","","","","6","6","1786",""
"8683","0","html-button-response","18","238330","0.0-14.0","5ef9e7a8e1d3567a48fa1154","5ef9e7a8e1d3567a48fa1154_20240207","","","","7","1","1361",""
"3286","0","html-button-response","19","242124","0.0-15.0","5ef9e7a8e1d3567a48fa1154","5ef9e7a8e1d3567a48fa1154_20240207","","","","5","5","1165",""
"3176","0","html-button-response","20","245814","0.0-16.0","5ef9e7a8e1d3567a48fa1154","5ef9e7a8e1d3567a48fa1154_20240207","","","","7","7","1069",""
"4229","0","html-button-response","21","250546","0.0-17.0","5ef9e7a8e1d3567a48fa1154","5ef9e7a8e1d3567a48fa1154_20240207","","","","4","1","1469",""
"2896","0","html-button-response","22","253952","0.0-18.0","5ef9e7a8e1d3567a48fa1154","5ef9e7a8e1d3567a48fa1154_20240207","","","","9","9","1902",""
"2795","0","html-button-response","23","257258","0.0-19.0","5ef9e7a8e1d3567a48fa1154","5ef9e7a8e1d3567a48fa1154_20240207","","","","6","8","2135",""
"2439","0","html-button-response","24","260214","0.0-20.0","5ef9e7a8e1d3567a48fa1154","5ef9e7a8e1d3567a48fa1154_20240207","","","","7","8","1175",""
"1926","0","html-button-response","25","262659","0.0-21.0","5ef9e7a8e1d3567a48fa1154","5ef9e7a8e1d3567a48fa1154_20240207","","","","5","5","1977",""
"4304","0","html-button-response","26","267466","0.0-22.0","5ef9e7a8e1d3567a48fa1154","5ef9e7a8e1d3567a48fa1154_20240207","","","","9","6","1080",""
"3496","0","html-button-response","27","271464","0.0-23.0","5ef9e7a8e1d3567a48fa1154","5ef9e7a8e1d3567a48fa1154_20240207","","","","1","1","1726",""
"5138","0","html-button-response","28","277112","0.0-24.0","5ef9e7a8e1d3567a48fa1154","5ef9e7a8e1d3567a48fa1154_20240207","","","","5","1","189",""
"4131","0","html-button-response","29","281754","0.0-25.0","5ef9e7a8e1d3567a48fa1154","5ef9e7a8e1d3567a48fa1154_20240207","","","","5","5","1149",""
"2789","0","html-button-response","30","285045","0.0-26.0","5ef9e7a8e1d3567a48fa1154","5ef9e7a8e1d3567a48fa1154_20240207","","","","9","9","1744",""
"3361","0","html-button-response","31","288910","0.0-27.0","5ef9e7a8e1d3567a48fa1154","5ef9e7a8e1d3567a48fa1154_20240207","","","","5","5","1956",""
"6413","0","html-button-response","32","295825","0.0-28.0","5ef9e7a8e1d3567a48fa1154","5ef9e7a8e1d3567a48fa1154_20240207","","","","5","1","2143",""
"5284","0","html-button-response","33","301609","0.0-29.0","5ef9e7a8e1d3567a48fa1154","5ef9e7a8e1d3567a48fa1154_20240207","","","","9","5","417",""
"2445","0","html-button-response","34","304556","0.0-30.0","5ef9e7a8e1d3567a48fa1154","5ef9e7a8e1d3567a48fa1154_20240207","","","","5","5","1686",""
"2117","0","html-button-response","35","307182","0.0-31.0","5ef9e7a8e1d3567a48fa1154","5ef9e7a8e1d3567a48fa1154_20240207","","","","5","5","2017",""
"6039","0","html-button-response","36","313729","0.0-32.0","5ef9e7a8e1d3567a48fa1154","5ef9e7a8e1d3567a48fa1154_20240207","","","","3","1","1352",""
"4470","0","html-button-response","37","318707","0.0-33.0","5ef9e7a8e1d3567a48fa1154","5ef9e7a8e1d3567a48fa1154_20240207","","","","5","5","1320",""
"9360","0","html-button-response","38","328572","0.0-34.0","5ef9e7a8e1d3567a48fa1154","5ef9e7a8e1d3567a48fa1154_20240207","","","","5","2","805",""
"3974","0","html-button-response","39","333056","0.0-35.0","5ef9e7a8e1d3567a48fa1154","5ef9e7a8e1d3567a48fa1154_20240207","","","","9","5","781",""
"2586","0","html-button-response","40","336155","0.0-36.0","5ef9e7a8e1d3567a48fa1154","5ef9e7a8e1d3567a48fa1154_20240207","","","","9","7","691",""
"2329","0","html-button-response","41","338997","0.0-37.0","5ef9e7a8e1d3567a48fa1154","5ef9e7a8e1d3567a48fa1154_20240207","","","","9","6","372",""
"2861","0","html-button-response","42","342362","0.0-38.0","5ef9e7a8e1d3567a48fa1154","5ef9e7a8e1d3567a48fa1154_20240207","","","","9","9","846",""
"3338","0","html-button-response","43","346205","0.0-39.0","5ef9e7a8e1d3567a48fa1154","5ef9e7a8e1d3567a48fa1154_20240207","","","","9","5","551",""
"5157","0","html-button-response","44","351873","0.0-40.0","5ef9e7a8e1d3567a48fa1154","5ef9e7a8e1d3567a48fa1154_20240207","","","","4","1","1221",""
"4391","0","html-button-response","45","356773","0.0-41.0","5ef9e7a8e1d3567a48fa1154","5ef9e7a8e1d3567a48fa1154_20240207","","","","2","1","364",""
"5570","0","html-button-response","46","362848","0.0-42.0","5ef9e7a8e1d3567a48fa1154","5ef9e7a8e1d3567a48fa1154_20240207","","","","4","1","740",""
"21490","0","html-button-response","47","384849","0.0-43.0","5ef9e7a8e1d3567a48fa1154","5ef9e7a8e1d3567a48fa1154_20240207","","","","3","1","2038",""
"5729","0","html-button-response","48","391081","0.0-44.0","5ef9e7a8e1d3567a48fa1154","5ef9e7a8e1d3567a48fa1154_20240207","","","","9","5","758",""
"4232","0","html-button-response","49","395821","0.0-45.0","5ef9e7a8e1d3567a48fa1154","5ef9e7a8e1d3567a48fa1154_20240207","","","","5","1","1077",""
"4900","0","html-button-response","50","401228","0.0-46.0","5ef9e7a8e1d3567a48fa1154","5ef9e7a8e1d3567a48fa1154_20240207","","","","9","7","211",""
"4345","0","html-button-response","51","406081","0.0-47.0","5ef9e7a8e1d3567a48fa1154","5ef9e7a8e1d3567a48fa1154_20240207","","","","5","3","793",""
"2625","0","html-button-response","52","409208","0.0-48.0","5ef9e7a8e1d3567a48fa1154","5ef9e7a8e1d3567a48fa1154_20240207","","","","5","2","2053",""
"2769","0","html-button-response","53","412485","0.0-49.0","5ef9e7a8e1d3567a48fa1154","5ef9e7a8e1d3567a48fa1154_20240207","","","","5","5","1180",""
"5214","0","html-button-response","54","418202","0.0-50.0","5ef9e7a8e1d3567a48fa1154","5ef9e7a8e1d3567a48fa1154_20240207","","","","2","1","1611",""
"17077","0","html-button-response","55","435784","0.0-51.0","5ef9e7a8e1d3567a48fa1154","5ef9e7a8e1d3567a48fa1154_20240207","","","","5","8","1874",""
"8078","0","html-button-response","56","444371","0.0-52.0","5ef9e7a8e1d3567a48fa1154","5ef9e7a8e1d3567a48fa1154_20240207","","","","9","5","59",""
"2746","0","html-button-response","57","447619","0.0-53.0","5ef9e7a8e1d3567a48fa1154","5ef9e7a8e1d3567a48fa1154_20240207","","","","9","8","2033",""
"2312","0","html-button-response","58","450439","0.0-54.0","5ef9e7a8e1d3567a48fa1154","5ef9e7a8e1d3567a48fa1154_20240207","","","","9","8","1888",""
"5482","0","html-button-response","59","456439","0.0-55.0","5ef9e7a8e1d3567a48fa1154","5ef9e7a8e1d3567a48fa1154_20240207","","","","2","1","831",""
"3570","0","html-button-response","60","460511","0.0-56.0","5ef9e7a8e1d3567a48fa1154","5ef9e7a8e1d3567a48fa1154_20240207","","","","5","1","882",""
"2409","0","html-button-response","61","463421","0.0-57.0","5ef9e7a8e1d3567a48fa1154","5ef9e7a8e1d3567a48fa1154_20240207","","","","5","5","1640",""
"4038","0","html-button-response","62","467966","0.0-58.0","5ef9e7a8e1d3567a48fa1154","5ef9e7a8e1d3567a48fa1154_20240207","","","","3","1","893",""
"2094","0","html-button-response","63","470576","0.0-59.0","5ef9e7a8e1d3567a48fa1154","5ef9e7a8e1d3567a48fa1154_20240207","","","","5","5","213",""
"3529","0","html-button-response","64","474612","0.0-60.0","5ef9e7a8e1d3567a48fa1154","5ef9e7a8e1d3567a48fa1154_20240207","","","","8","8","1251",""
"3621","0","html-button-response","65","478736","0.0-61.0","5ef9e7a8e1d3567a48fa1154","5ef9e7a8e1d3567a48fa1154_20240207","","","","8","5","495",""
"4145","0","html-button-response","66","483382","0.0-62.0","5ef9e7a8e1d3567a48fa1154","5ef9e7a8e1d3567a48fa1154_20240207","","","","9","8","1072",""
"4572","0","html-button-response","67","488459","0.0-63.0","5ef9e7a8e1d3567a48fa1154","5ef9e7a8e1d3567a48fa1154_20240207","","","","5","6","942",""
"5056","0","html-button-response","68","494016","0.0-64.0","5ef9e7a8e1d3567a48fa1154","5ef9e7a8e1d3567a48fa1154_20240207","","","","5","8","574",""
"2279","0","html-button-response","69","496799","0.0-65.0","5ef9e7a8e1d3567a48fa1154","5ef9e7a8e1d3567a48fa1154_20240207","","","","5","5","1086",""
"3045","0","html-button-response","70","500354","0.0-66.0","5ef9e7a8e1d3567a48fa1154","5ef9e7a8e1d3567a48fa1154_20240207","","","","8","5","784",""
"7450","0","html-button-response","71","508312","0.0-67.0","5ef9e7a8e1d3567a48fa1154","5ef9e7a8e1d3567a48fa1154_20240207","","","","5","2","1348",""
"4813","0","html-button-response","72","513630","0.0-68.0","5ef9e7a8e1d3567a48fa1154","5ef9e7a8e1d3567a48fa1154_20240207","","","","8","2","344",""
"3887","0","html-button-response","73","518025","0.0-69.0","5ef9e7a8e1d3567a48fa1154","5ef9e7a8e1d3567a48fa1154_20240207","","","","6","2","897",""
"2078","0","html-button-response","74","520605","0.0-70.0","5ef9e7a8e1d3567a48fa1154","5ef9e7a8e1d3567a48fa1154_20240207","","","","5","5","504",""
"5041","0","html-button-response","75","526148","0.0-71.0","5ef9e7a8e1d3567a48fa1154","5ef9e7a8e1d3567a48fa1154_20240207","","","","8","7","1575",""
"2062","0","html-button-response","76","528712","0.0-72.0","5ef9e7a8e1d3567a48fa1154","5ef9e7a8e1d3567a48fa1154_20240207","","","","5","5","843",""
"3413","0","html-button-response","77","532636","0.0-73.0","5ef9e7a8e1d3567a48fa1154","5ef9e7a8e1d3567a48fa1154_20240207","","","","3","1","1050",""
"2469","0","html-button-response","78","535612","0.0-74.0","5ef9e7a8e1d3567a48fa1154","5ef9e7a8e1d3567a48fa1154_20240207","","","","5","2","2183",""
"4695","0","html-button-response","79","540811","0.0-75.0","5ef9e7a8e1d3567a48fa1154","5ef9e7a8e1d3567a48fa1154_20240207","","","","8","5","603",""
"2708","0","html-button-response","80","544029","0.0-76.0","5ef9e7a8e1d3567a48fa1154","5ef9e7a8e1d3567a48fa1154_20240207","","","","8","5","396",""
"2712","0","html-button-response","81","547246","0.0-77.0","5ef9e7a8e1d3567a48fa1154","5ef9e7a8e1d3567a48fa1154_20240207","","","","7","5","460",""
"3286","0","html-button-response","82","551040","0.0-78.0","5ef9e7a8e1d3567a48fa1154","5ef9e7a8e1d3567a48fa1154_20240207","","","","8","8","1250",""
"2534","0","html-button-response","83","554087","0.0-79.0","5ef9e7a8e1d3567a48fa1154","5ef9e7a8e1d3567a48fa1154_20240207","","","","2","3","2077",""
"1955","0","html-button-response","84","556545","0.0-80.0","5ef9e7a8e1d3567a48fa1154","5ef9e7a8e1d3567a48fa1154_20240207","","","","5","5","2007",""
"1910","0","html-button-response","85","558959","0.0-81.0","5ef9e7a8e1d3567a48fa1154","5ef9e7a8e1d3567a48fa1154_20240207","","","","5","5","817",""
"1239","0","html-button-response","86","560708","0.0-82.0","5ef9e7a8e1d3567a48fa1154","5ef9e7a8e1d3567a48fa1154_20240207","","","","5","5","1878",""
"5875","0","html-button-response","87","567089","0.0-83.0","5ef9e7a8e1d3567a48fa1154","5ef9e7a8e1d3567a48fa1154_20240207","","","","2","3","1980",""
"4811","0","html-button-response","88","572408","0.0-84.0","5ef9e7a8e1d3567a48fa1154","5ef9e7a8e1d3567a48fa1154_20240207","","","","7","7","1875",""
"4052","0","html-button-response","89","576969","0.0-85.0","5ef9e7a8e1d3567a48fa1154","5ef9e7a8e1d3567a48fa1154_20240207","","","","4","6","1150",""
"3721","0","html-button-response","90","581191","0.0-86.0","5ef9e7a8e1d3567a48fa1154","5ef9e7a8e1d3567a48fa1154_20240207","","","","7","7","2096",""
"3263","0","html-button-response","91","584956","0.0-87.0","5ef9e7a8e1d3567a48fa1154","5ef9e7a8e1d3567a48fa1154_20240207","","","","2","8","741",""
"11719","0","html-button-response","92","597181","0.0-88.0","5ef9e7a8e1d3567a48fa1154","5ef9e7a8e1d3567a48fa1154_20240207","","","","8","2","98",""
"3505","0","html-button-response","93","601200","0.0-89.0","5ef9e7a8e1d3567a48fa1154","5ef9e7a8e1d3567a48fa1154_20240207","","","","8","2","60",""
"2371","0","html-button-response","94","604074","0.0-90.0","5ef9e7a8e1d3567a48fa1154","5ef9e7a8e1d3567a48fa1154_20240207","","","","3","2","713",""
"2345","0","html-button-response","95","606922","0.0-91.0","5ef9e7a8e1d3567a48fa1154","5ef9e7a8e1d3567a48fa1154_20240207","","","","5","5","1462",""
"4109","0","html-button-response","96","611542","0.0-92.0","5ef9e7a8e1d3567a48fa1154","5ef9e7a8e1d3567a48fa1154_20240207","","","","5","2","659",""
"4507","0","html-button-response","97","616552","0.0-93.0","5ef9e7a8e1d3567a48fa1154","5ef9e7a8e1d3567a48fa1154_20240207","","","","6","3","1084",""
"4229","0","html-button-response","98","621286","0.0-94.0","5ef9e7a8e1d3567a48fa1154","5ef9e7a8e1d3567a48fa1154_20240207","","","","7","2","330",""
"6830","0","html-button-response","99","628627","0.0-95.0","5ef9e7a8e1d3567a48fa1154","5ef9e7a8e1d3567a48fa1154_20240207","","","","9","2","682",""
"10547","0","html-button-response","100","639682","0.0-96.0","5ef9e7a8e1d3567a48fa1154","5ef9e7a8e1d3567a48fa1154_20240207","","","","7","2","141",""
"6368","0","html-button-response","101","646553","0.0-97.0","5ef9e7a8e1d3567a48fa1154","5ef9e7a8e1d3567a48fa1154_20240207","","","","3","5","1167",""
"4920","0","html-button-response","102","651975","0.0-98.0","5ef9e7a8e1d3567a48fa1154","5ef9e7a8e1d3567a48fa1154_20240207","","","","8","3","394",""
"4943","0","html-button-response","103","657428","0.0-99.0","5ef9e7a8e1d3567a48fa1154","5ef9e7a8e1d3567a48fa1154_20240207","","","","4","8","1565",""
"2545","0","html-button-response","104","660486","0.0-100.0","5ef9e7a8e1d3567a48fa1154","5ef9e7a8e1d3567a48fa1154_20240207","","","","1","2","166",""
"1822","0","html-button-response","105","662811","0.0-101.0","5ef9e7a8e1d3567a48fa1154","5ef9e7a8e1d3567a48fa1154_20240207","","","","4","5","244",""
"2611","0","html-button-response","106","665925","0.0-102.0","5ef9e7a8e1d3567a48fa1154","5ef9e7a8e1d3567a48fa1154_20240207","","","","9","5","84",""
"1605","0","html-button-response","107","668038","0.0-103.0","5ef9e7a8e1d3567a48fa1154","5ef9e7a8e1d3567a48fa1154_20240207","","","","6","7","153",""
"1335","0","html-button-response","108","669876","0.0-104.0","5ef9e7a8e1d3567a48fa1154","5ef9e7a8e1d3567a48fa1154_20240207","","","","7","3","2192",""
"1934","0","html-button-response","109","672328","0.0-105.0","5ef9e7a8e1d3567a48fa1154","5ef9e7a8e1d3567a48fa1154_20240207","","","","6","2","1499",""
"3540","0","html-button-response","110","676370","0.0-106.0","5ef9e7a8e1d3567a48fa1154","5ef9e7a8e1d3567a48fa1154_20240207","","","","7","8","2068",""
"2008","0","html-button-response","111","678891","0.0-107.0","5ef9e7a8e1d3567a48fa1154","5ef9e7a8e1d3567a48fa1154_20240207","","","","5","5","1841",""
"3540","0","html-button-response","112","682934","0.0-108.0","5ef9e7a8e1d3567a48fa1154","5ef9e7a8e1d3567a48fa1154_20240207","","","","7","5","625",""
"2450","0","html-button-response","113","685888","0.0-109.0","5ef9e7a8e1d3567a48fa1154","5ef9e7a8e1d3567a48fa1154_20240207","","","","5","5","1259",""
"2676","0","html-button-response","114","689067","0.0-110.0","5ef9e7a8e1d3567a48fa1154","5ef9e7a8e1d3567a48fa1154_20240207","","","","5","5","996",""
"7994","0","html-button-response","115","697574","0.0-111.0","5ef9e7a8e1d3567a48fa1154","5ef9e7a8e1d3567a48fa1154_20240207","","","","2","3","475",""
"1792","0","html-button-response","116","699876","0.0-112.0","5ef9e7a8e1d3567a48fa1154","5ef9e7a8e1d3567a48fa1154_20240207","","","","3","3","809",""
"2626","0","html-button-response","117","703004","0.0-113.0","5ef9e7a8e1d3567a48fa1154","5ef9e7a8e1d3567a48fa1154_20240207","","","","7","2","71",""
"1822","0","html-button-response","118","705344","0.0-114.0","5ef9e7a8e1d3567a48fa1154","5ef9e7a8e1d3567a48fa1154_20240207","","","","5","5","1342",""
"2370","0","html-button-response","119","708224","0.0-115.0","5ef9e7a8e1d3567a48fa1154","5ef9e7a8e1d3567a48fa1154_20240207","","","","7","5","108",""
"17495","0","html-button-response","120","726223","0.0-116.0","5ef9e7a8e1d3567a48fa1154","5ef9e7a8e1d3567a48fa1154_20240207","","","","8","5","569",""
"5052","0","html-button-response","121","731781","0.0-117.0","5ef9e7a8e1d3567a48fa1154","5ef9e7a8e1d3567a48fa1154_20240207","","","","9","1","1882",""
"32490","0","html-button-response","122","764775","0.0-118.0","5ef9e7a8e1d3567a48fa1154","5ef9e7a8e1d3567a48fa1154_20240207","","","","5","1","1625",""
"39497","0","html-button-response","123","804782","0.0-119.0","5ef9e7a8e1d3567a48fa1154","5ef9e7a8e1d3567a48fa1154_20240207","","","","5","1","439",""
"3391","0","html-button-response","124","808675","0.0-120.0","5ef9e7a8e1d3567a48fa1154","5ef9e7a8e1d3567a48fa1154_20240207","","","","8","3","1189",""
"2781","0","html-button-response","125","811961","0.0-121.0","5ef9e7a8e1d3567a48fa1154","5ef9e7a8e1d3567a48fa1154_20240207","","","","8","3","21",""
"1754","0","html-button-response","126","814217","0.0-122.0","5ef9e7a8e1d3567a48fa1154","5ef9e7a8e1d3567a48fa1154_20240207","","","","5","2","306",""
"2256","0","html-button-response","127","816984","0.0-123.0","5ef9e7a8e1d3567a48fa1154","5ef9e7a8e1d3567a48fa1154_20240207","","","","5","8","1592",""
"3743","0","html-button-response","128","821229","0.0-124.0","5ef9e7a8e1d3567a48fa1154","5ef9e7a8e1d3567a48fa1154_20240207","","","","3","6","1449",""
"1322","0","html-button-response","129","823053","0.0-125.0","5ef9e7a8e1d3567a48fa1154","5ef9e7a8e1d3567a48fa1154_20240207","","","","3","6","775",""
"4449","0","html-button-response","130","828018","0.0-126.0","5ef9e7a8e1d3567a48fa1154","5ef9e7a8e1d3567a48fa1154_20240207","","","","2","5","2165",""
"1912","0","html-button-response","131","830439","0.0-127.0","5ef9e7a8e1d3567a48fa1154","5ef9e7a8e1d3567a48fa1154_20240207","","","","3","5","1153",""
"2221","0","html-button-response","132","833170","0.0-128.0","5ef9e7a8e1d3567a48fa1154","5ef9e7a8e1d3567a48fa1154_20240207","","","","7","5","537",""
"2392","0","html-button-response","133","836063","0.0-129.0","5ef9e7a8e1d3567a48fa1154","5ef9e7a8e1d3567a48fa1154_20240207","","","","4","5","1975",""
"2644","0","html-button-response","134","839214","0.0-130.0","5ef9e7a8e1d3567a48fa1154","5ef9e7a8e1d3567a48fa1154_20240207","","","","3","3","878",""
"2040","0","html-button-response","135","841757","0.0-131.0","5ef9e7a8e1d3567a48fa1154","5ef9e7a8e1d3567a48fa1154_20240207","","","","4","4","646",""
"1447","0","html-button-response","136","843707","0.0-132.0","5ef9e7a8e1d3567a48fa1154","5ef9e7a8e1d3567a48fa1154_20240207","","","","4","3","1290",""
"885","0","html-button-response","137","845095","0.0-133.0","5ef9e7a8e1d3567a48fa1154","5ef9e7a8e1d3567a48fa1154_20240207","","","","4","4","721",""
"1195","0","html-button-response","138","846797","0.0-134.0","5ef9e7a8e1d3567a48fa1154","5ef9e7a8e1d3567a48fa1154_20240207","","","","4","7","393",""
"1100","0","html-button-response","139","848401","0.0-135.0","5ef9e7a8e1d3567a48fa1154","5ef9e7a8e1d3567a48fa1154_20240207","","","","4","5","205",""
"2310","0","html-button-response","140","851217","0.0-136.0","5ef9e7a8e1d3567a48fa1154","5ef9e7a8e1d3567a48fa1154_20240207","","","","7","5","261",""
"1853","0","html-button-response","141","853573","0.0-137.0","5ef9e7a8e1d3567a48fa1154","5ef9e7a8e1d3567a48fa1154_20240207","","","","5","5","981",""
"2616","0","html-button-response","142","856693","0.0-138.0","5ef9e7a8e1d3567a48fa1154","5ef9e7a8e1d3567a48fa1154_20240207","","","","5","1","1755",""
"1972","0","html-button-response","143","859168","0.0-139.0","5ef9e7a8e1d3567a48fa1154","5ef9e7a8e1d3567a48fa1154_20240207","","","","5","3","2169",""
"3234","0","html-button-response","144","862911","0.0-140.0","5ef9e7a8e1d3567a48fa1154","5ef9e7a8e1d3567a48fa1154_20240207","","","","7","2","1206",""
"2400","0","html-button-response","145","865821","0.0-141.0","5ef9e7a8e1d3567a48fa1154","5ef9e7a8e1d3567a48fa1154_20240207","","","","3","3","1515",""
"2417","0","html-button-response","146","868754","0.0-142.0","5ef9e7a8e1d3567a48fa1154","5ef9e7a8e1d3567a48fa1154_20240207","","","","7","8","1579",""
"2230","0","html-button-response","147","871491","0.0-143.0","5ef9e7a8e1d3567a48fa1154","5ef9e7a8e1d3567a48fa1154_20240207","","","","5","5","2138",""
"3710","0","html-button-response","148","875706","0.0-144.0","5ef9e7a8e1d3567a48fa1154","5ef9e7a8e1d3567a48fa1154_20240207","","","","6","2","1725",""
"6165","0","html-button-response","149","882373","0.0-145.0","5ef9e7a8e1d3567a48fa1154","5ef9e7a8e1d3567a48fa1154_20240207","","","","9","3","469",""
"1448","0","html-button-response","150","884324","0.0-146.0","5ef9e7a8e1d3567a48fa1154","5ef9e7a8e1d3567a48fa1154_20240207","","","","5","4","1282",""
"991","0","html-button-response","151","885825","0.0-147.0","5ef9e7a8e1d3567a48fa1154","5ef9e7a8e1d3567a48fa1154_20240207","","","","6","5","1064",""
"2307","0","html-button-response","152","888636","0.0-148.0","5ef9e7a8e1d3567a48fa1154","5ef9e7a8e1d3567a48fa1154_20240207","","","","5","8","1056",""
"1861","0","html-button-response","153","891006","0.0-149.0","5ef9e7a8e1d3567a48fa1154","5ef9e7a8e1d3567a48fa1154_20240207","","","","5","5","1680",""
"1993","0","html-button-response","154","893503","0.0-150.0","5ef9e7a8e1d3567a48fa1154","5ef9e7a8e1d3567a48fa1154_20240207","","","","5","2","1387",""
"1897","0","html-button-response","155","895904","0.0-151.0","5ef9e7a8e1d3567a48fa1154","5ef9e7a8e1d3567a48fa1154_20240207","","","","5","8","1745",""
"3492","0","html-button-response","156","899901","0.0-152.0","5ef9e7a8e1d3567a48fa1154","5ef9e7a8e1d3567a48fa1154_20240207","","","","6","3","1543",""
"3465","0","html-button-response","157","903876","0.0-153.0","5ef9e7a8e1d3567a48fa1154","5ef9e7a8e1d3567a48fa1154_20240207","","","","5","8","2069",""
"1524","0","html-button-response","158","905902","0.0-154.0","5ef9e7a8e1d3567a48fa1154","5ef9e7a8e1d3567a48fa1154_20240207","","","","5","5","836",""
"2340","0","html-button-response","159","908746","0.0-155.0","5ef9e7a8e1d3567a48fa1154","5ef9e7a8e1d3567a48fa1154_20240207","","","","5","2","1664",""
"2429","0","html-button-response","160","911679","0.0-156.0","5ef9e7a8e1d3567a48fa1154","5ef9e7a8e1d3567a48fa1154_20240207","","","","5","7","1120",""
"2581","0","html-button-response","161","914768","0.0-157.0","5ef9e7a8e1d3567a48fa1154","5ef9e7a8e1d3567a48fa1154_20240207","","","","5","5","2188",""
"2771","0","html-button-response","162","918046","0.0-158.0","5ef9e7a8e1d3567a48fa1154","5ef9e7a8e1d3567a48fa1154_20240207","","","","8","5","300",""
"22239","0","html-button-response","163","940802","0.0-159.0","5ef9e7a8e1d3567a48fa1154","5ef9e7a8e1d3567a48fa1154_20240207","","","","5","2","544",""
"3308","0","html-button-response","164","944626","0.0-160.0","5ef9e7a8e1d3567a48fa1154","5ef9e7a8e1d3567a48fa1154_20240207","","","","8","5","747",""
"3917","0","html-button-response","165","949053","0.0-161.0","5ef9e7a8e1d3567a48fa1154","5ef9e7a8e1d3567a48fa1154_20240207","","","","2","3","1892",""
"8219","0","html-button-response","166","957783","0.0-162.0","5ef9e7a8e1d3567a48fa1154","5ef9e7a8e1d3567a48fa1154_20240207","","","","7","2","360",""
"2000","0","html-button-response","167","960296","0.0-163.0","5ef9e7a8e1d3567a48fa1154","5ef9e7a8e1d3567a48fa1154_20240207","","","","6","2","906",""
"2205","0","html-button-response","168","963011","0.0-164.0","5ef9e7a8e1d3567a48fa1154","5ef9e7a8e1d3567a48fa1154_20240207","","","","5","5","985",""
"2384","0","html-button-response","169","965898","0.0-165.0","5ef9e7a8e1d3567a48fa1154","5ef9e7a8e1d3567a48fa1154_20240207","","","","5","2","780",""
"1768","0","html-button-response","170","968169","0.0-166.0","5ef9e7a8e1d3567a48fa1154","5ef9e7a8e1d3567a48fa1154_20240207","","","","3","2","632",""
"2008","0","html-button-response","171","970684","0.0-167.0","5ef9e7a8e1d3567a48fa1154","5ef9e7a8e1d3567a48fa1154_20240207","","","","4","3","1479",""
"2292","0","html-button-response","172","973482","0.0-168.0","5ef9e7a8e1d3567a48fa1154","5ef9e7a8e1d3567a48fa1154_20240207","","","","8","8","2059",""
"2890","0","html-button-response","173","976878","0.0-169.0","5ef9e7a8e1d3567a48fa1154","5ef9e7a8e1d3567a48fa1154_20240207","","","","3","1","764",""
"1186","0","html-button-response","174","978566","0.0-170.0","5ef9e7a8e1d3567a48fa1154","5ef9e7a8e1d3567a48fa1154_20240207","","","","4","3","1277",""
"2331","0","html-button-response","175","981402","0.0-171.0","5ef9e7a8e1d3567a48fa1154","5ef9e7a8e1d3567a48fa1154_20240207","","","","2","3","1103",""
"3336","0","html-button-response","176","985242","0.0-172.0","5ef9e7a8e1d3567a48fa1154","5ef9e7a8e1d3567a48fa1154_20240207","","","","9","5","552",""
"4822","0","html-button-response","177","990567","0.0-173.0","5ef9e7a8e1d3567a48fa1154","5ef9e7a8e1d3567a48fa1154_20240207","","","","7","2","708",""
"5224","0","html-button-response","178","996297","0.0-174.0","5ef9e7a8e1d3567a48fa1154","5ef9e7a8e1d3567a48fa1154_20240207","","","","7","3","29",""
"3753","0","html-button-response","179","1000564","0.0-175.0","5ef9e7a8e1d3567a48fa1154","5ef9e7a8e1d3567a48fa1154_20240207","","","","3","3","1936",""
"1608","0","html-button-response","180","1002679","0.0-176.0","5ef9e7a8e1d3567a48fa1154","5ef9e7a8e1d3567a48fa1154_20240207","","","","2","4","1339",""
"2371","0","html-button-response","181","1005553","0.0-177.0","5ef9e7a8e1d3567a48fa1154","5ef9e7a8e1d3567a48fa1154_20240207","","","","4","2","1584",""
"2872","0","html-button-response","182","1008933","0.0-178.0","5ef9e7a8e1d3567a48fa1154","5ef9e7a8e1d3567a48fa1154_20240207","","","","5","1","331",""
"2672","0","html-button-response","183","1012107","0.0-179.0","5ef9e7a8e1d3567a48fa1154","5ef9e7a8e1d3567a48fa1154_20240207","","","","5","3","806",""
"2355","0","html-button-response","184","1014965","0.0-180.0","5ef9e7a8e1d3567a48fa1154","5ef9e7a8e1d3567a48fa1154_20240207","","","","7","7","1185",""
"10067","0","html-button-response","185","1025540","0.0-181.0","5ef9e7a8e1d3567a48fa1154","5ef9e7a8e1d3567a48fa1154_20240207","","","","8","8","1603",""
"3314","0","html-button-response","186","1029357","0.0-182.0","5ef9e7a8e1d3567a48fa1154","5ef9e7a8e1d3567a48fa1154_20240207","","","","3","2","13",""
"13183","0","html-button-response","187","1043045","0.0-183.0","5ef9e7a8e1d3567a48fa1154","5ef9e7a8e1d3567a48fa1154_20240207","","","","8","5","1466",""
"4026","0","html-button-response","188","1047582","0.0-184.0","5ef9e7a8e1d3567a48fa1154","5ef9e7a8e1d3567a48fa1154_20240207","","","","6","8","1890",""
"2609","0","html-button-response","189","1050710","0.0-185.0","5ef9e7a8e1d3567a48fa1154","5ef9e7a8e1d3567a48fa1154_20240207","","","","8","7","1720",""
"5940","0","html-button-response","190","1057152","0.0-186.0","5ef9e7a8e1d3567a48fa1154","5ef9e7a8e1d3567a48fa1154_20240207","","","","7","2","568",""
"3302","0","html-button-response","191","1060972","0.0-187.0","5ef9e7a8e1d3567a48fa1154","5ef9e7a8e1d3567a48fa1154_20240207","","","","3","3","636",""
"3036","0","html-button-response","192","1064511","0.0-188.0","5ef9e7a8e1d3567a48fa1154","5ef9e7a8e1d3567a48fa1154_20240207","","","","7","7","1930",""
"3749","0","html-button-response","193","1068777","0.0-189.0","5ef9e7a8e1d3567a48fa1154","5ef9e7a8e1d3567a48fa1154_20240207","","","","5","3","1181",""
"2161","0","html-button-response","194","1071448","0.0-190.0","5ef9e7a8e1d3567a48fa1154","5ef9e7a8e1d3567a48fa1154_20240207","","","","7","7","1861",""
"1733","0","html-button-response","195","1073683","0.0-191.0","5ef9e7a8e1d3567a48fa1154","5ef9e7a8e1d3567a48fa1154_20240207","","","","5","5","1857",""
"1909","0","html-button-response","196","1076105","0.0-192.0","5ef9e7a8e1d3567a48fa1154","5ef9e7a8e1d3567a48fa1154_20240207","","","","5","3","609",""
"1079","0","html-button-response","197","1077689","0.0-193.0","5ef9e7a8e1d3567a48fa1154","5ef9e7a8e1d3567a48fa1154_20240207","","","","5","3","1341",""
"2782","0","html-button-response","198","1080974","0.0-194.0","5ef9e7a8e1d3567a48fa1154","5ef9e7a8e1d3567a48fa1154_20240207","","","","5","7","1915",""
"1769","0","html-button-response","199","1083253","0.0-195.0","5ef9e7a8e1d3567a48fa1154","5ef9e7a8e1d3567a48fa1154_20240207","","","","4","6","1785",""
"2191","0","html-button-response","200","1085954","0.0-196.0","5ef9e7a8e1d3567a48fa1154","5ef9e7a8e1d3567a48fa1154_20240207","","","","3","4","919",""
"1904","0","html-button-response","201","1088368","0.0-197.0","5ef9e7a8e1d3567a48fa1154","5ef9e7a8e1d3567a48fa1154_20240207","","","","1","4","647",""
"2023","0","html-button-response","202","1090899","0.0-198.0","5ef9e7a8e1d3567a48fa1154","5ef9e7a8e1d3567a48fa1154_20240207","","","","8","5","276",""
"2798","0","html-button-response","203","1094199","0.0-199.0","5ef9e7a8e1d3567a48fa1154","5ef9e7a8e1d3567a48fa1154_20240207","","","","7","4","1146",""
"5076","0","html-button-response","204","1099780","0.0-200.0","5ef9e7a8e1d3567a48fa1154","5ef9e7a8e1d3567a48fa1154_20240207","","","","5","5","1293",""
"2106","0","html-button-response","205","1102397","0.0-201.0","5ef9e7a8e1d3567a48fa1154","5ef9e7a8e1d3567a48fa1154_20240207","","","","7","2","654",""
"2351","0","html-button-response","206","1105255","0.0-202.0","5ef9e7a8e1d3567a48fa1154","5ef9e7a8e1d3567a48fa1154_20240207","","","","3","3","1358",""
"2513","0","html-button-response","207","1108276","0.0-203.0","5ef9e7a8e1d3567a48fa1154","5ef9e7a8e1d3567a48fa1154_20240207","","","","3","2","1698",""
"1590","0","html-button-response","208","1110371","0.0-204.0","5ef9e7a8e1d3567a48fa1154","5ef9e7a8e1d3567a48fa1154_20240207","","","","5","5","1674",""
"3337","0","html-button-response","209","1114211","0.0-205.0","5ef9e7a8e1d3567a48fa1154","5ef9e7a8e1d3567a48fa1154_20240207","","","","2","2","1754",""
"3016","0","html-button-response","210","1117734","0.0-206.0","5ef9e7a8e1d3567a48fa1154","5ef9e7a8e1d3567a48fa1154_20240207","","","","7","9","1600",""
"4469","0","html-button-response","211","1122708","0.0-207.0","5ef9e7a8e1d3567a48fa1154","5ef9e7a8e1d3567a48fa1154_20240207","","","","9","4","45",""
"2249","0","html-button-response","212","1125475","0.0-208.0","5ef9e7a8e1d3567a48fa1154","5ef9e7a8e1d3567a48fa1154_20240207","","","","5","5","1984",""
"3412","0","html-button-response","213","1129391","0.0-209.0","5ef9e7a8e1d3567a48fa1154","5ef9e7a8e1d3567a48fa1154_20240207","","","","8","5","33",""
"1490","0","html-button-response","214","1131383","0.0-210.0","5ef9e7a8e1d3567a48fa1154","5ef9e7a8e1d3567a48fa1154_20240207","","","","6","5","121",""
"3331","0","html-button-response","215","1135218","0.0-211.0","5ef9e7a8e1d3567a48fa1154","5ef9e7a8e1d3567a48fa1154_20240207","","","","6","2","1046",""
"2286","0","html-button-response","216","1138009","0.0-212.0","5ef9e7a8e1d3567a48fa1154","5ef9e7a8e1d3567a48fa1154_20240207","","","","7","2","410",""
"4807","0","html-button-response","217","1143318","0.0-213.0","5ef9e7a8e1d3567a48fa1154","5ef9e7a8e1d3567a48fa1154_20240207","","","","7","7","1722",""
"3150","0","html-button-response","218","1146970","0.0-214.0","5ef9e7a8e1d3567a48fa1154","5ef9e7a8e1d3567a48fa1154_20240207","","","","6","2","280",""
"3394","0","html-button-response","219","1150870","0.0-215.0","5ef9e7a8e1d3567a48fa1154","5ef9e7a8e1d3567a48fa1154_20240207","","","","3","8","872",""
"3404","0","html-button-response","220","1154777","0.0-216.0","5ef9e7a8e1d3567a48fa1154","5ef9e7a8e1d3567a48fa1154_20240207","","","","3","8","1706",""
"2182","0","html-button-response","221","1157460","0.0-217.0","5ef9e7a8e1d3567a48fa1154","5ef9e7a8e1d3567a48fa1154_20240207","","","","7","6","382",""
"2192","0","html-button-response","222","1160170","0.0-218.0","5ef9e7a8e1d3567a48fa1154","5ef9e7a8e1d3567a48fa1154_20240207","","","","7","6","692",""
"5025","0","html-button-response","223","1165696","0.0-219.0","5ef9e7a8e1d3567a48fa1154","5ef9e7a8e1d3567a48fa1154_20240207","","","","6","3","918",""
"1770","0","html-button-response","224","1167970","0.0-220.0","5ef9e7a8e1d3567a48fa1154","5ef9e7a8e1d3567a48fa1154_20240207","","","","5","3","1326",""
"1193","0","html-button-response","225","1169665","0.0-221.0","5ef9e7a8e1d3567a48fa1154","5ef9e7a8e1d3567a48fa1154_20240207","","","","3","3","1738",""
"1236","0","html-button-response","226","1171413","0.0-222.0","5ef9e7a8e1d3567a48fa1154","5ef9e7a8e1d3567a48fa1154_20240207","","","","7","3","335",""
"1974","0","html-button-response","227","1173894","0.0-223.0","5ef9e7a8e1d3567a48fa1154","5ef9e7a8e1d3567a48fa1154_20240207","","","","6","7","889",""
"2268","0","html-button-response","228","1176671","0.0-224.0","5ef9e7a8e1d3567a48fa1154","5ef9e7a8e1d3567a48fa1154_20240207","","","","5","5","1994",""
"1091","0","html-button-response","229","1178266","0.0-225.0","5ef9e7a8e1d3567a48fa1154","5ef9e7a8e1d3567a48fa1154_20240207","","","Thank you. You have reached the end. 
                       <br>Click the button below to reveal your compensation.
                        <br><br>","","","","87,1864,304,200,1421,1876,2056,1201,1786,1361,1165,1069,1469,1902,2135,1175,1977,1080,1726,189,1149,1744,1956,2143,417,1686,2017,1352,1320,805,781,691,372,846,551,1221,364,740,2038,758,1077,211,793,2053,1180,1611,1874,59,2033,1888,831,882,1640,893,213,1251,495,1072,942,574,1086,784,1348,344,897,504,1575,843,1050,2183,603,396,460,1250,2077,2007,817,1878,1980,1875,1150,2096,741,98,60,713,1462,659,1084,330,682,141,1167,394,1565,166,244,84,153,2192,1499,2068,1841,625,1259,996,475,809,71,1342,108,569,1882,1625,439,1189,21,306,1592,1449,775,2165,1153,537,1975,878,646,1290,721,393,205,261,981,1755,2169,1206,1515,1579,2138,1725,469,1282,1064,1056,1680,1387,1745,1543,2069,836,1664,1120,2188,300,544,747,1892,360,906,985,780,632,1479,2059,764,1277,1103,552,708,29,1936,1339,1584,331,806,1185,1603,13,1466,1890,1720,568,636,1930,1181,1861,1857,609,1341,1915,1785,919,647,276,1146,1293,654,1358,1698,1674,1754,1600,45,1984,33,121,1046,410,1722,280,872,1706,382,692,918,1326,1738,335,889,1994"
