"rt","response","trial_type","trial_index","time_elapsed","internal_node_id","part_ID","ID_DATE","screen_id","understand_correct","stimulus","arousal","valence","img_id","tested_trial_idx"
"17078","0","html-button-response","0","17082","0.0-0.0","5f1c2ebf1d8b7c48ad3ec3db","5f1c2ebf1d8b7c48ad3ec3db_20240207","","","","","","",""
"10197","[object Object]","survey-html-form","1","27790","0.0-1.0","5f1c2ebf1d8b7c48ad3ec3db","5f1c2ebf1d8b7c48ad3ec3db_20240207","prolific_id_page","","","","","",""
"99441","0","html-button-response","2","127224","0.0-2.0","5f1c2ebf1d8b7c48ad3ec3db","5f1c2ebf1d8b7c48ad3ec3db_20240207","","","","","","",""
"12340","0","html-button-response","3","140086","0.0-3.0-0.0","5f1c2ebf1d8b7c48ad3ec3db","5f1c2ebf1d8b7c48ad3ec3db_20240207","","false","","","","",""
"79601","0","html-button-response","4","222332","0.0-3.1-0.1","5f1c2ebf1d8b7c48ad3ec3db","5f1c2ebf1d8b7c48ad3ec3db_20240207","","true","","","","",""
"2715","0","html-button-response","5","225554","0.0-4.0","5f1c2ebf1d8b7c48ad3ec3db","5f1c2ebf1d8b7c48ad3ec3db_20240207","","","
<div>
Great! You will now go on to rate the faces.
<br><br>
</div>
","","","",""
"20172","0","html-button-response","6","246251","0.0-5.0","5f1c2ebf1d8b7c48ad3ec3db","5f1c2ebf1d8b7c48ad3ec3db_20240207","","","","5","2","195",""
"5740","0","html-button-response","7","252506","0.0-6.0","5f1c2ebf1d8b7c48ad3ec3db","5f1c2ebf1d8b7c48ad3ec3db_20240207","","","","5","5","2141",""
"4493","0","html-button-response","8","257510","0.0-7.0","5f1c2ebf1d8b7c48ad3ec3db","5f1c2ebf1d8b7c48ad3ec3db_20240207","","","","5","5","1010",""
"19577","0","html-button-response","9","277606","0.0-8.0","5f1c2ebf1d8b7c48ad3ec3db","5f1c2ebf1d8b7c48ad3ec3db_20240207","","","","6","5","578",""
"7634","0","html-button-response","10","285747","0.0-9.0","5f1c2ebf1d8b7c48ad3ec3db","5f1c2ebf1d8b7c48ad3ec3db_20240207","","","","5","1","896",""
"7834","0","html-button-response","11","294087","0.0-10.0","5f1c2ebf1d8b7c48ad3ec3db","5f1c2ebf1d8b7c48ad3ec3db_20240207","","","","6","9","2032",""
"18217","0","html-button-response","12","312816","0.0-11.0","5f1c2ebf1d8b7c48ad3ec3db","5f1c2ebf1d8b7c48ad3ec3db_20240207","","","","5","5","1528",""
"10038","0","html-button-response","13","323373","0.0-12.0","5f1c2ebf1d8b7c48ad3ec3db","5f1c2ebf1d8b7c48ad3ec3db_20240207","","","","4","7","1421",""
"7056","0","html-button-response","14","330948","0.0-13.0","5f1c2ebf1d8b7c48ad3ec3db","5f1c2ebf1d8b7c48ad3ec3db_20240207","","","","5","1","702",""
"63270","0","html-button-response","15","394739","0.0-14.0","5f1c2ebf1d8b7c48ad3ec3db","5f1c2ebf1d8b7c48ad3ec3db_20240207","","","","7","7","339",""
"8907","0","html-button-response","16","404155","0.0-15.0","5f1c2ebf1d8b7c48ad3ec3db","5f1c2ebf1d8b7c48ad3ec3db_20240207","","","","5","1","1895",""
"8446","0","html-button-response","17","413117","0.0-16.0","5f1c2ebf1d8b7c48ad3ec3db","5f1c2ebf1d8b7c48ad3ec3db_20240207","","","","3","5","1295",""
"11604","0","html-button-response","18","425241","0.0-17.0","5f1c2ebf1d8b7c48ad3ec3db","5f1c2ebf1d8b7c48ad3ec3db_20240207","","","","3","3","472",""
"9996","0","html-button-response","19","435749","0.0-18.0","5f1c2ebf1d8b7c48ad3ec3db","5f1c2ebf1d8b7c48ad3ec3db_20240207","","","","5","8","1548",""
"8501","0","html-button-response","20","444771","0.0-19.0","5f1c2ebf1d8b7c48ad3ec3db","5f1c2ebf1d8b7c48ad3ec3db_20240207","","","","5","1","1792",""
"6665","0","html-button-response","21","451941","0.0-20.0","5f1c2ebf1d8b7c48ad3ec3db","5f1c2ebf1d8b7c48ad3ec3db_20240207","","","","5","5","1511",""
"8293","0","html-button-response","22","460750","0.0-21.0","5f1c2ebf1d8b7c48ad3ec3db","5f1c2ebf1d8b7c48ad3ec3db_20240207","","","","5","1","700",""
"7960","0","html-button-response","23","469218","0.0-22.0","5f1c2ebf1d8b7c48ad3ec3db","5f1c2ebf1d8b7c48ad3ec3db_20240207","","","","5","3","1624",""
"4705","0","html-button-response","24","474448","0.0-23.0","5f1c2ebf1d8b7c48ad3ec3db","5f1c2ebf1d8b7c48ad3ec3db_20240207","","","","5","5","1319",""
"8308","0","html-button-response","25","483268","0.0-24.0","5f1c2ebf1d8b7c48ad3ec3db","5f1c2ebf1d8b7c48ad3ec3db_20240207","","","","5","3","1092",""
"6518","0","html-button-response","26","490308","0.0-25.0","5f1c2ebf1d8b7c48ad3ec3db","5f1c2ebf1d8b7c48ad3ec3db_20240207","","","","7","1","517",""
"8076","0","html-button-response","27","498899","0.0-26.0","5f1c2ebf1d8b7c48ad3ec3db","5f1c2ebf1d8b7c48ad3ec3db_20240207","","","","6","8","2096",""
"7569","0","html-button-response","28","506976","0.0-27.0","5f1c2ebf1d8b7c48ad3ec3db","5f1c2ebf1d8b7c48ad3ec3db_20240207","","","","5","5","1663",""
"9950","0","html-button-response","29","517440","0.0-28.0","5f1c2ebf1d8b7c48ad3ec3db","5f1c2ebf1d8b7c48ad3ec3db_20240207","","","","5","8","1927",""
"4680","0","html-button-response","30","522627","0.0-29.0","5f1c2ebf1d8b7c48ad3ec3db","5f1c2ebf1d8b7c48ad3ec3db_20240207","","","","5","1","1832",""
"9085","0","html-button-response","31","532230","0.0-30.0","5f1c2ebf1d8b7c48ad3ec3db","5f1c2ebf1d8b7c48ad3ec3db_20240207","","","","3","1","620",""
"6036","0","html-button-response","32","538775","0.0-31.0","5f1c2ebf1d8b7c48ad3ec3db","5f1c2ebf1d8b7c48ad3ec3db_20240207","","","","3","1","1690",""
"4499","0","html-button-response","33","543787","0.0-32.0","5f1c2ebf1d8b7c48ad3ec3db","5f1c2ebf1d8b7c48ad3ec3db_20240207","","","","9","5","851",""
"5929","0","html-button-response","34","550229","0.0-33.0","5f1c2ebf1d8b7c48ad3ec3db","5f1c2ebf1d8b7c48ad3ec3db_20240207","","","","6","8","1356",""
"5460","0","html-button-response","35","556197","0.0-34.0","5f1c2ebf1d8b7c48ad3ec3db","5f1c2ebf1d8b7c48ad3ec3db_20240207","","","","5","5","1988",""
"141545","0","html-button-response","36","698248","0.0-35.0","5f1c2ebf1d8b7c48ad3ec3db","5f1c2ebf1d8b7c48ad3ec3db_20240207","","","","7","5","575",""
"10031","0","html-button-response","37","708797","0.0-36.0","5f1c2ebf1d8b7c48ad3ec3db","5f1c2ebf1d8b7c48ad3ec3db_20240207","","","","3","1","166",""
"6305","0","html-button-response","38","715613","0.0-37.0","5f1c2ebf1d8b7c48ad3ec3db","5f1c2ebf1d8b7c48ad3ec3db_20240207","","","","3","1","806",""
"8474","0","html-button-response","39","724607","0.0-38.0","5f1c2ebf1d8b7c48ad3ec3db","5f1c2ebf1d8b7c48ad3ec3db_20240207","","","","8","8","1889",""
"9350","0","html-button-response","40","734476","0.0-39.0","5f1c2ebf1d8b7c48ad3ec3db","5f1c2ebf1d8b7c48ad3ec3db_20240207","","","","4","1","1679",""
"15419","0","html-button-response","41","750415","0.0-40.0","5f1c2ebf1d8b7c48ad3ec3db","5f1c2ebf1d8b7c48ad3ec3db_20240207","","","","7","7","1886",""
"9127","0","html-button-response","42","760049","0.0-41.0","5f1c2ebf1d8b7c48ad3ec3db","5f1c2ebf1d8b7c48ad3ec3db_20240207","","","","4","1","1781",""
"3975","0","html-button-response","43","764541","0.0-42.0","5f1c2ebf1d8b7c48ad3ec3db","5f1c2ebf1d8b7c48ad3ec3db_20240207","","","","3","1","724",""
"6537","0","html-button-response","44","771592","0.0-43.0","5f1c2ebf1d8b7c48ad3ec3db","5f1c2ebf1d8b7c48ad3ec3db_20240207","","","","1","5","451",""
"5309","0","html-button-response","45","777412","0.0-44.0","5f1c2ebf1d8b7c48ad3ec3db","5f1c2ebf1d8b7c48ad3ec3db_20240207","","","","5","5","1983",""
"8927","0","html-button-response","46","786857","0.0-45.0","5f1c2ebf1d8b7c48ad3ec3db","5f1c2ebf1d8b7c48ad3ec3db_20240207","","","","3","7","1549",""
"7628","0","html-button-response","47","795005","0.0-46.0","5f1c2ebf1d8b7c48ad3ec3db","5f1c2ebf1d8b7c48ad3ec3db_20240207","","","","8","5","1041",""
"5773","0","html-button-response","48","801285","0.0-47.0","5f1c2ebf1d8b7c48ad3ec3db","5f1c2ebf1d8b7c48ad3ec3db_20240207","","","","5","1","1049",""
"10613","0","html-button-response","49","812417","0.0-48.0","5f1c2ebf1d8b7c48ad3ec3db","5f1c2ebf1d8b7c48ad3ec3db_20240207","","","","5","5","1947",""
"6758","0","html-button-response","50","819680","0.0-49.0","5f1c2ebf1d8b7c48ad3ec3db","5f1c2ebf1d8b7c48ad3ec3db_20240207","","","","7","5","1861",""
"7250","0","html-button-response","51","827443","0.0-50.0","5f1c2ebf1d8b7c48ad3ec3db","5f1c2ebf1d8b7c48ad3ec3db_20240207","","","","5","1","1207",""
"4801","0","html-button-response","52","832762","0.0-51.0","5f1c2ebf1d8b7c48ad3ec3db","5f1c2ebf1d8b7c48ad3ec3db_20240207","","","","5","5","2180",""
"4414","0","html-button-response","53","837690","0.0-52.0","5f1c2ebf1d8b7c48ad3ec3db","5f1c2ebf1d8b7c48ad3ec3db_20240207","","","","9","5","406",""
"5845","0","html-button-response","54","844045","0.0-53.0","5f1c2ebf1d8b7c48ad3ec3db","5f1c2ebf1d8b7c48ad3ec3db_20240207","","","","5","5","1840",""
"9074","0","html-button-response","55","853629","0.0-54.0","5f1c2ebf1d8b7c48ad3ec3db","5f1c2ebf1d8b7c48ad3ec3db_20240207","","","","3","5","990",""
"7684","0","html-button-response","56","861826","0.0-55.0","5f1c2ebf1d8b7c48ad3ec3db","5f1c2ebf1d8b7c48ad3ec3db_20240207","","","","4","1","1035",""
"4916","0","html-button-response","57","867254","0.0-56.0","5f1c2ebf1d8b7c48ad3ec3db","5f1c2ebf1d8b7c48ad3ec3db_20240207","","","","5","5","2130",""
"7819","0","html-button-response","58","875593","0.0-57.0","5f1c2ebf1d8b7c48ad3ec3db","5f1c2ebf1d8b7c48ad3ec3db_20240207","","","","3","1","127",""
"6986","0","html-button-response","59","883089","0.0-58.0","5f1c2ebf1d8b7c48ad3ec3db","5f1c2ebf1d8b7c48ad3ec3db_20240207","","","","5","1","1807",""
"10749","0","html-button-response","60","894353","0.0-59.0","5f1c2ebf1d8b7c48ad3ec3db","5f1c2ebf1d8b7c48ad3ec3db_20240207","","","","7","5","314",""
"23736","0","html-button-response","61","918596","0.0-60.0","5f1c2ebf1d8b7c48ad3ec3db","5f1c2ebf1d8b7c48ad3ec3db_20240207","","","","5","1","1365",""
"47431","0","html-button-response","62","966539","0.0-61.0","5f1c2ebf1d8b7c48ad3ec3db","5f1c2ebf1d8b7c48ad3ec3db_20240207","","","","3","7","2164",""
"5957","0","html-button-response","63","973016","0.0-62.0","5f1c2ebf1d8b7c48ad3ec3db","5f1c2ebf1d8b7c48ad3ec3db_20240207","","","","8","5","186",""
"4488","0","html-button-response","64","978018","0.0-63.0","5f1c2ebf1d8b7c48ad3ec3db","5f1c2ebf1d8b7c48ad3ec3db_20240207","","","","3","1","1612",""
"4708","0","html-button-response","65","983236","0.0-64.0","5f1c2ebf1d8b7c48ad3ec3db","5f1c2ebf1d8b7c48ad3ec3db_20240207","","","","9","5","43",""
"5289","0","html-button-response","66","989041","0.0-65.0","5f1c2ebf1d8b7c48ad3ec3db","5f1c2ebf1d8b7c48ad3ec3db_20240207","","","","5","5","1763",""
"7499","0","html-button-response","67","997061","0.0-66.0","5f1c2ebf1d8b7c48ad3ec3db","5f1c2ebf1d8b7c48ad3ec3db_20240207","","","","3","5","763",""
"11590","0","html-button-response","68","1009160","0.0-67.0","5f1c2ebf1d8b7c48ad3ec3db","5f1c2ebf1d8b7c48ad3ec3db_20240207","","","","5","5","659",""
"4082","0","html-button-response","69","1013763","0.0-68.0","5f1c2ebf1d8b7c48ad3ec3db","5f1c2ebf1d8b7c48ad3ec3db_20240207","","","","4","5","1176",""
"4619","0","html-button-response","70","1018894","0.0-69.0","5f1c2ebf1d8b7c48ad3ec3db","5f1c2ebf1d8b7c48ad3ec3db_20240207","","","","5","5","1004",""
"4672","0","html-button-response","71","1024073","0.0-70.0","5f1c2ebf1d8b7c48ad3ec3db","5f1c2ebf1d8b7c48ad3ec3db_20240207","","","","6","6","937",""
"5106","0","html-button-response","72","1029693","0.0-71.0","5f1c2ebf1d8b7c48ad3ec3db","5f1c2ebf1d8b7c48ad3ec3db_20240207","","","","3","4","1342",""
"4458","0","html-button-response","73","1034667","0.0-72.0","5f1c2ebf1d8b7c48ad3ec3db","5f1c2ebf1d8b7c48ad3ec3db_20240207","","","","9","5","877",""
"6969","0","html-button-response","74","1042144","0.0-73.0","5f1c2ebf1d8b7c48ad3ec3db","5f1c2ebf1d8b7c48ad3ec3db_20240207","","","","3","4","595",""
"4449","0","html-button-response","75","1047136","0.0-74.0","5f1c2ebf1d8b7c48ad3ec3db","5f1c2ebf1d8b7c48ad3ec3db_20240207","","","","9","5","680",""
"7156","0","html-button-response","76","1054798","0.0-75.0","5f1c2ebf1d8b7c48ad3ec3db","5f1c2ebf1d8b7c48ad3ec3db_20240207","","","","5","5","1289",""
"6107","0","html-button-response","77","1061424","0.0-76.0","5f1c2ebf1d8b7c48ad3ec3db","5f1c2ebf1d8b7c48ad3ec3db_20240207","","","","4","1","531",""
"5577","0","html-button-response","78","1067515","0.0-77.0","5f1c2ebf1d8b7c48ad3ec3db","5f1c2ebf1d8b7c48ad3ec3db_20240207","","","","2","5","621",""
"4721","0","html-button-response","79","1072742","0.0-78.0","5f1c2ebf1d8b7c48ad3ec3db","5f1c2ebf1d8b7c48ad3ec3db_20240207","","","","5","8","1900",""
"4574","0","html-button-response","80","1077833","0.0-79.0","5f1c2ebf1d8b7c48ad3ec3db","5f1c2ebf1d8b7c48ad3ec3db_20240207","","","","5","5","1138",""
"6188","0","html-button-response","81","1084534","0.0-80.0","5f1c2ebf1d8b7c48ad3ec3db","5f1c2ebf1d8b7c48ad3ec3db_20240207","","","","7","8","925",""
"6314","0","html-button-response","82","1091364","0.0-81.0","5f1c2ebf1d8b7c48ad3ec3db","5f1c2ebf1d8b7c48ad3ec3db_20240207","","","","5","5","813",""
"8389","0","html-button-response","83","1100267","0.0-82.0","5f1c2ebf1d8b7c48ad3ec3db","5f1c2ebf1d8b7c48ad3ec3db_20240207","","","","6","3","541",""
"6326","0","html-button-response","84","1107104","0.0-83.0","5f1c2ebf1d8b7c48ad3ec3db","5f1c2ebf1d8b7c48ad3ec3db_20240207","","","","4","3","647",""
"5975","0","html-button-response","85","1113590","0.0-84.0","5f1c2ebf1d8b7c48ad3ec3db","5f1c2ebf1d8b7c48ad3ec3db_20240207","","","","3","1","611",""
"8106","0","html-button-response","86","1122210","0.0-85.0","5f1c2ebf1d8b7c48ad3ec3db","5f1c2ebf1d8b7c48ad3ec3db_20240207","","","","5","5","631",""
"5048","0","html-button-response","87","1127773","0.0-86.0","5f1c2ebf1d8b7c48ad3ec3db","5f1c2ebf1d8b7c48ad3ec3db_20240207","","","","5","5","2101",""
"4228","0","html-button-response","88","1132511","0.0-87.0","5f1c2ebf1d8b7c48ad3ec3db","5f1c2ebf1d8b7c48ad3ec3db_20240207","","","","9","5","417",""
"4205","0","html-button-response","89","1137234","0.0-88.0","5f1c2ebf1d8b7c48ad3ec3db","5f1c2ebf1d8b7c48ad3ec3db_20240207","","","","5","5","1619",""
"4495","0","html-button-response","90","1142236","0.0-89.0","5f1c2ebf1d8b7c48ad3ec3db","5f1c2ebf1d8b7c48ad3ec3db_20240207","","","","5","5","1124",""
"4363","0","html-button-response","91","1147103","0.0-90.0","5f1c2ebf1d8b7c48ad3ec3db","5f1c2ebf1d8b7c48ad3ec3db_20240207","","","","4","7","2126",""
"5304","0","html-button-response","92","1152927","0.0-91.0","5f1c2ebf1d8b7c48ad3ec3db","5f1c2ebf1d8b7c48ad3ec3db_20240207","","","","4","5","800",""
"4433","0","html-button-response","93","1157876","0.0-92.0","5f1c2ebf1d8b7c48ad3ec3db","5f1c2ebf1d8b7c48ad3ec3db_20240207","","","","3","5","1632",""
"4368","0","html-button-response","94","1162754","0.0-93.0","5f1c2ebf1d8b7c48ad3ec3db","5f1c2ebf1d8b7c48ad3ec3db_20240207","","","","4","5","1843",""
"8970","0","html-button-response","95","1172239","0.0-94.0","5f1c2ebf1d8b7c48ad3ec3db","5f1c2ebf1d8b7c48ad3ec3db_20240207","","","","5","7","1808",""
"8937","0","html-button-response","96","1181686","0.0-95.0","5f1c2ebf1d8b7c48ad3ec3db","5f1c2ebf1d8b7c48ad3ec3db_20240207","","","","8","5","18",""
"6207","0","html-button-response","97","1188405","0.0-96.0","5f1c2ebf1d8b7c48ad3ec3db","5f1c2ebf1d8b7c48ad3ec3db_20240207","","","","9","5","212",""
"5040","0","html-button-response","98","1193965","0.0-97.0","5f1c2ebf1d8b7c48ad3ec3db","5f1c2ebf1d8b7c48ad3ec3db_20240207","","","","5","1","402",""
"5644","0","html-button-response","99","1200119","0.0-98.0","5f1c2ebf1d8b7c48ad3ec3db","5f1c2ebf1d8b7c48ad3ec3db_20240207","","","","5","9","2082",""
"4172","0","html-button-response","100","1204802","0.0-99.0","5f1c2ebf1d8b7c48ad3ec3db","5f1c2ebf1d8b7c48ad3ec3db_20240207","","","","5","1","1205",""
"4154","0","html-button-response","101","1209463","0.0-100.0","5f1c2ebf1d8b7c48ad3ec3db","5f1c2ebf1d8b7c48ad3ec3db_20240207","","","","5","1","685",""
"7473","0","html-button-response","102","1217446","0.0-101.0","5f1c2ebf1d8b7c48ad3ec3db","5f1c2ebf1d8b7c48ad3ec3db_20240207","","","","5","1","1192",""
"4644","0","html-button-response","103","1222598","0.0-102.0","5f1c2ebf1d8b7c48ad3ec3db","5f1c2ebf1d8b7c48ad3ec3db_20240207","","","","5","1","1428",""
"8195","0","html-button-response","104","1231311","0.0-103.0","5f1c2ebf1d8b7c48ad3ec3db","5f1c2ebf1d8b7c48ad3ec3db_20240207","","","","8","4","206",""
"4627","0","html-button-response","105","1236456","0.0-104.0","5f1c2ebf1d8b7c48ad3ec3db","5f1c2ebf1d8b7c48ad3ec3db_20240207","","","","9","5","248",""
"5609","0","html-button-response","106","1242582","0.0-105.0","5f1c2ebf1d8b7c48ad3ec3db","5f1c2ebf1d8b7c48ad3ec3db_20240207","","","","9","5","243",""
"9375","0","html-button-response","107","1252470","0.0-106.0","5f1c2ebf1d8b7c48ad3ec3db","5f1c2ebf1d8b7c48ad3ec3db_20240207","","","","7","5","304",""
"5757","0","html-button-response","108","1258738","0.0-107.0","5f1c2ebf1d8b7c48ad3ec3db","5f1c2ebf1d8b7c48ad3ec3db_20240207","","","","5","9","2081",""
"5592","0","html-button-response","109","1264843","0.0-108.0","5f1c2ebf1d8b7c48ad3ec3db","5f1c2ebf1d8b7c48ad3ec3db_20240207","","","","5","5","838",""
"4441","0","html-button-response","110","1269802","0.0-109.0","5f1c2ebf1d8b7c48ad3ec3db","5f1c2ebf1d8b7c48ad3ec3db_20240207","","","","5","5","1321",""
"3512","0","html-button-response","111","1273826","0.0-110.0","5f1c2ebf1d8b7c48ad3ec3db","5f1c2ebf1d8b7c48ad3ec3db_20240207","","","","5","5","1958",""
"4230","0","html-button-response","112","1278575","0.0-111.0","5f1c2ebf1d8b7c48ad3ec3db","5f1c2ebf1d8b7c48ad3ec3db_20240207","","","","4","9","1926",""
"3734","0","html-button-response","113","1282824","0.0-112.0","5f1c2ebf1d8b7c48ad3ec3db","5f1c2ebf1d8b7c48ad3ec3db_20240207","","","","9","5","381",""
"5843","0","html-button-response","114","1289180","0.0-113.0","5f1c2ebf1d8b7c48ad3ec3db","5f1c2ebf1d8b7c48ad3ec3db_20240207","","","","3","3","831",""
"4351","0","html-button-response","115","1294046","0.0-114.0","5f1c2ebf1d8b7c48ad3ec3db","5f1c2ebf1d8b7c48ad3ec3db_20240207","","","","5","5","2174",""
"6023","0","html-button-response","116","1300573","0.0-115.0","5f1c2ebf1d8b7c48ad3ec3db","5f1c2ebf1d8b7c48ad3ec3db_20240207","","","","3","2","466",""
"4741","0","html-button-response","117","1305839","0.0-116.0","5f1c2ebf1d8b7c48ad3ec3db","5f1c2ebf1d8b7c48ad3ec3db_20240207","","","","4","2","841",""
"5555","0","html-button-response","118","1311903","0.0-117.0","5f1c2ebf1d8b7c48ad3ec3db","5f1c2ebf1d8b7c48ad3ec3db_20240207","","","","6","5","242",""
"5827","0","html-button-response","119","1318239","0.0-118.0","5f1c2ebf1d8b7c48ad3ec3db","5f1c2ebf1d8b7c48ad3ec3db_20240207","","","","7","4","38",""
"4568","0","html-button-response","120","1323321","0.0-119.0","5f1c2ebf1d8b7c48ad3ec3db","5f1c2ebf1d8b7c48ad3ec3db_20240207","","","","6","1","26",""
"4354","0","html-button-response","121","1328187","0.0-120.0","5f1c2ebf1d8b7c48ad3ec3db","5f1c2ebf1d8b7c48ad3ec3db_20240207","","","","5","1","1386",""
"3749","0","html-button-response","122","1332455","0.0-121.0","5f1c2ebf1d8b7c48ad3ec3db","5f1c2ebf1d8b7c48ad3ec3db_20240207","","","","4","1","1741",""
"4647","0","html-button-response","123","1337609","0.0-122.0","5f1c2ebf1d8b7c48ad3ec3db","5f1c2ebf1d8b7c48ad3ec3db_20240207","","","","5","5","1629",""
"5754","0","html-button-response","124","1343874","0.0-123.0","5f1c2ebf1d8b7c48ad3ec3db","5f1c2ebf1d8b7c48ad3ec3db_20240207","","","","7","5","305",""
"5744","0","html-button-response","125","1350124","0.0-124.0","5f1c2ebf1d8b7c48ad3ec3db","5f1c2ebf1d8b7c48ad3ec3db_20240207","","","","4","2","507",""
"4182","0","html-button-response","126","1354826","0.0-125.0","5f1c2ebf1d8b7c48ad3ec3db","5f1c2ebf1d8b7c48ad3ec3db_20240207","","","","9","5","367",""
"4058","0","html-button-response","127","1359402","0.0-126.0","5f1c2ebf1d8b7c48ad3ec3db","5f1c2ebf1d8b7c48ad3ec3db_20240207","","","","5","5","1626",""
"4052","0","html-button-response","128","1363966","0.0-127.0","5f1c2ebf1d8b7c48ad3ec3db","5f1c2ebf1d8b7c48ad3ec3db_20240207","","","","3","1","908",""
"5542","0","html-button-response","129","1370019","0.0-128.0","5f1c2ebf1d8b7c48ad3ec3db","5f1c2ebf1d8b7c48ad3ec3db_20240207","","","","7","5","446",""
"7490","0","html-button-response","130","1378024","0.0-129.0","5f1c2ebf1d8b7c48ad3ec3db","5f1c2ebf1d8b7c48ad3ec3db_20240207","","","","5","7","2113",""
"3628","0","html-button-response","131","1382168","0.0-130.0","5f1c2ebf1d8b7c48ad3ec3db","5f1c2ebf1d8b7c48ad3ec3db_20240207","","","","5","5","1817",""
"4544","0","html-button-response","132","1387223","0.0-131.0","5f1c2ebf1d8b7c48ad3ec3db","5f1c2ebf1d8b7c48ad3ec3db_20240207","","","","5","9","2068",""
"3977","0","html-button-response","133","1391717","0.0-132.0","5f1c2ebf1d8b7c48ad3ec3db","5f1c2ebf1d8b7c48ad3ec3db_20240207","","","","8","5","615",""
"4134","0","html-button-response","134","1396360","0.0-133.0","5f1c2ebf1d8b7c48ad3ec3db","5f1c2ebf1d8b7c48ad3ec3db_20240207","","","","5","1","1568",""
"5421","0","html-button-response","135","1402293","0.0-134.0","5f1c2ebf1d8b7c48ad3ec3db","5f1c2ebf1d8b7c48ad3ec3db_20240207","","","","4","5","438",""
"6071","0","html-button-response","136","1408887","0.0-135.0","5f1c2ebf1d8b7c48ad3ec3db","5f1c2ebf1d8b7c48ad3ec3db_20240207","","","","3","4","672",""
"4099","0","html-button-response","137","1413496","0.0-136.0","5f1c2ebf1d8b7c48ad3ec3db","5f1c2ebf1d8b7c48ad3ec3db_20240207","","","","4","1","1230",""
"5442","0","html-button-response","138","1419452","0.0-137.0","5f1c2ebf1d8b7c48ad3ec3db","5f1c2ebf1d8b7c48ad3ec3db_20240207","","","","7","1","179",""
"4616","0","html-button-response","139","1424577","0.0-138.0","5f1c2ebf1d8b7c48ad3ec3db","5f1c2ebf1d8b7c48ad3ec3db_20240207","","","","5","9","1405",""
"3917","0","html-button-response","140","1429006","0.0-139.0","5f1c2ebf1d8b7c48ad3ec3db","5f1c2ebf1d8b7c48ad3ec3db_20240207","","","","5","1","1908",""
"3724","0","html-button-response","141","1433250","0.0-140.0","5f1c2ebf1d8b7c48ad3ec3db","5f1c2ebf1d8b7c48ad3ec3db_20240207","","","","5","5","1823",""
"4258","0","html-button-response","142","1438022","0.0-141.0","5f1c2ebf1d8b7c48ad3ec3db","5f1c2ebf1d8b7c48ad3ec3db_20240207","","","","5","5","2193",""
"4332","0","html-button-response","143","1442867","0.0-142.0","5f1c2ebf1d8b7c48ad3ec3db","5f1c2ebf1d8b7c48ad3ec3db_20240207","","","","5","5","1175",""
"7570","0","html-button-response","144","1450951","0.0-143.0","5f1c2ebf1d8b7c48ad3ec3db","5f1c2ebf1d8b7c48ad3ec3db_20240207","","","","9","5","131",""
"4835","0","html-button-response","145","1456300","0.0-144.0","5f1c2ebf1d8b7c48ad3ec3db","5f1c2ebf1d8b7c48ad3ec3db_20240207","","","","3","3","335",""
"4523","0","html-button-response","146","1461342","0.0-145.0","5f1c2ebf1d8b7c48ad3ec3db","5f1c2ebf1d8b7c48ad3ec3db_20240207","","","","3","6","1567",""
"3729","0","html-button-response","147","1465586","0.0-146.0","5f1c2ebf1d8b7c48ad3ec3db","5f1c2ebf1d8b7c48ad3ec3db_20240207","","","","5","1","1869",""
"3833","0","html-button-response","148","1469937","0.0-147.0","5f1c2ebf1d8b7c48ad3ec3db","5f1c2ebf1d8b7c48ad3ec3db_20240207","","","","5","5","1168",""
"9072","0","html-button-response","149","1479517","0.0-148.0","5f1c2ebf1d8b7c48ad3ec3db","5f1c2ebf1d8b7c48ad3ec3db_20240207","","","","4","4","2063",""
"3715","0","html-button-response","150","1483738","0.0-149.0","5f1c2ebf1d8b7c48ad3ec3db","5f1c2ebf1d8b7c48ad3ec3db_20240207","","","","5","1","1258",""
"4903","0","html-button-response","151","1489161","0.0-150.0","5f1c2ebf1d8b7c48ad3ec3db","5f1c2ebf1d8b7c48ad3ec3db_20240207","","","","3","3","1144",""
"3957","0","html-button-response","152","1493627","0.0-151.0","5f1c2ebf1d8b7c48ad3ec3db","5f1c2ebf1d8b7c48ad3ec3db_20240207","","","","5","5","944",""
"4565","0","html-button-response","153","1498708","0.0-152.0","5f1c2ebf1d8b7c48ad3ec3db","5f1c2ebf1d8b7c48ad3ec3db_20240207","","","","5","5","1086",""
"5625","0","html-button-response","154","1504848","0.0-153.0","5f1c2ebf1d8b7c48ad3ec3db","5f1c2ebf1d8b7c48ad3ec3db_20240207","","","","4","2","892",""
"4404","0","html-button-response","155","1509767","0.0-154.0","5f1c2ebf1d8b7c48ad3ec3db","5f1c2ebf1d8b7c48ad3ec3db_20240207","","","","8","5","538",""
"5671","0","html-button-response","156","1515946","0.0-155.0","5f1c2ebf1d8b7c48ad3ec3db","5f1c2ebf1d8b7c48ad3ec3db_20240207","","","","3","5","790",""
"5476","0","html-button-response","157","1521937","0.0-156.0","5f1c2ebf1d8b7c48ad3ec3db","5f1c2ebf1d8b7c48ad3ec3db_20240207","","","","3","5","1102",""
"3986","0","html-button-response","158","1526436","0.0-157.0","5f1c2ebf1d8b7c48ad3ec3db","5f1c2ebf1d8b7c48ad3ec3db_20240207","","","","4","1","1063",""
"6322","0","html-button-response","159","1533275","0.0-158.0","5f1c2ebf1d8b7c48ad3ec3db","5f1c2ebf1d8b7c48ad3ec3db_20240207","","","","4","7","2100",""
"4123","0","html-button-response","160","1537910","0.0-159.0","5f1c2ebf1d8b7c48ad3ec3db","5f1c2ebf1d8b7c48ad3ec3db_20240207","","","","9","5","105",""
"3660","0","html-button-response","161","1542083","0.0-160.0","5f1c2ebf1d8b7c48ad3ec3db","5f1c2ebf1d8b7c48ad3ec3db_20240207","","","","5","1","907",""
"5753","0","html-button-response","162","1548346","0.0-161.0","5f1c2ebf1d8b7c48ad3ec3db","5f1c2ebf1d8b7c48ad3ec3db_20240207","","","","6","1","2105",""
"3573","0","html-button-response","163","1552438","0.0-162.0","5f1c2ebf1d8b7c48ad3ec3db","5f1c2ebf1d8b7c48ad3ec3db_20240207","","","","9","5","521",""
"4224","0","html-button-response","164","1557181","0.0-163.0","5f1c2ebf1d8b7c48ad3ec3db","5f1c2ebf1d8b7c48ad3ec3db_20240207","","","","4","1","1261",""
"3656","0","html-button-response","165","1561355","0.0-164.0","5f1c2ebf1d8b7c48ad3ec3db","5f1c2ebf1d8b7c48ad3ec3db_20240207","","","","5","5","1776",""
"5252","0","html-button-response","166","1567122","0.0-165.0","5f1c2ebf1d8b7c48ad3ec3db","5f1c2ebf1d8b7c48ad3ec3db_20240207","","","","8","5","215",""
"4332","0","html-button-response","167","1571960","0.0-166.0","5f1c2ebf1d8b7c48ad3ec3db","5f1c2ebf1d8b7c48ad3ec3db_20240207","","","","9","5","274",""
"3683","0","html-button-response","168","1576163","0.0-167.0","5f1c2ebf1d8b7c48ad3ec3db","5f1c2ebf1d8b7c48ad3ec3db_20240207","","","","5","5","2011",""
"4041","0","html-button-response","169","1580710","0.0-168.0","5f1c2ebf1d8b7c48ad3ec3db","5f1c2ebf1d8b7c48ad3ec3db_20240207","","","","5","1","52",""
"4090","0","html-button-response","170","1585313","0.0-169.0","5f1c2ebf1d8b7c48ad3ec3db","5f1c2ebf1d8b7c48ad3ec3db_20240207","","","","4","8","1733",""
"7712","0","html-button-response","171","1593535","0.0-170.0","5f1c2ebf1d8b7c48ad3ec3db","5f1c2ebf1d8b7c48ad3ec3db_20240207","","","","6","7","2087",""
"6608","0","html-button-response","172","1600663","0.0-171.0","5f1c2ebf1d8b7c48ad3ec3db","5f1c2ebf1d8b7c48ad3ec3db_20240207","","","","2","5","1298",""
"4941","0","html-button-response","173","1606123","0.0-172.0","5f1c2ebf1d8b7c48ad3ec3db","5f1c2ebf1d8b7c48ad3ec3db_20240207","","","","7","5","495",""
"3845","0","html-button-response","174","1610480","0.0-173.0","5f1c2ebf1d8b7c48ad3ec3db","5f1c2ebf1d8b7c48ad3ec3db_20240207","","","","5","5","1517",""
"3531","0","html-button-response","175","1614515","0.0-174.0","5f1c2ebf1d8b7c48ad3ec3db","5f1c2ebf1d8b7c48ad3ec3db_20240207","","","","9","5","342",""
"3497","0","html-button-response","176","1618519","0.0-175.0","5f1c2ebf1d8b7c48ad3ec3db","5f1c2ebf1d8b7c48ad3ec3db_20240207","","","","5","5","1836",""
"3650","0","html-button-response","177","1622680","0.0-176.0","5f1c2ebf1d8b7c48ad3ec3db","5f1c2ebf1d8b7c48ad3ec3db_20240207","","","","5","5","2175",""
"4843","0","html-button-response","178","1628031","0.0-177.0","5f1c2ebf1d8b7c48ad3ec3db","5f1c2ebf1d8b7c48ad3ec3db_20240207","","","","3","5","1100",""
"3681","0","html-button-response","179","1632221","0.0-178.0","5f1c2ebf1d8b7c48ad3ec3db","5f1c2ebf1d8b7c48ad3ec3db_20240207","","","","5","5","1800",""
"5902","0","html-button-response","180","1638635","0.0-179.0","5f1c2ebf1d8b7c48ad3ec3db","5f1c2ebf1d8b7c48ad3ec3db_20240207","","","","5","6","2112",""
"3991","0","html-button-response","181","1643136","0.0-180.0","5f1c2ebf1d8b7c48ad3ec3db","5f1c2ebf1d8b7c48ad3ec3db_20240207","","","","5","6","1554",""
"7357","0","html-button-response","182","1651005","0.0-181.0","5f1c2ebf1d8b7c48ad3ec3db","5f1c2ebf1d8b7c48ad3ec3db_20240207","","","","2","5","845",""
"5147","0","html-button-response","183","1656652","0.0-182.0","5f1c2ebf1d8b7c48ad3ec3db","5f1c2ebf1d8b7c48ad3ec3db_20240207","","","","3","2","336",""
"4021","0","html-button-response","184","1661192","0.0-183.0","5f1c2ebf1d8b7c48ad3ec3db","5f1c2ebf1d8b7c48ad3ec3db_20240207","","","","3","2","1481",""
"4733","0","html-button-response","185","1666429","0.0-184.0","5f1c2ebf1d8b7c48ad3ec3db","5f1c2ebf1d8b7c48ad3ec3db_20240207","","","","7","5","748",""
"4623","0","html-button-response","186","1671569","0.0-185.0","5f1c2ebf1d8b7c48ad3ec3db","5f1c2ebf1d8b7c48ad3ec3db_20240207","","","","5","6","1783",""
"4130","0","html-button-response","187","1676208","0.0-186.0","5f1c2ebf1d8b7c48ad3ec3db","5f1c2ebf1d8b7c48ad3ec3db_20240207","","","","5","1","221",""
"5498","0","html-button-response","188","1682221","0.0-187.0","5f1c2ebf1d8b7c48ad3ec3db","5f1c2ebf1d8b7c48ad3ec3db_20240207","","","","5","2","139",""
"3640","0","html-button-response","189","1686369","0.0-188.0","5f1c2ebf1d8b7c48ad3ec3db","5f1c2ebf1d8b7c48ad3ec3db_20240207","","","","5","5","1146",""
"4499","0","html-button-response","190","1691384","0.0-189.0","5f1c2ebf1d8b7c48ad3ec3db","5f1c2ebf1d8b7c48ad3ec3db_20240207","","","","6","1","1543",""
"4240","0","html-button-response","191","1696129","0.0-190.0","5f1c2ebf1d8b7c48ad3ec3db","5f1c2ebf1d8b7c48ad3ec3db_20240207","","","","5","5","2152",""
"6155","0","html-button-response","192","1702800","0.0-191.0","5f1c2ebf1d8b7c48ad3ec3db","5f1c2ebf1d8b7c48ad3ec3db_20240207","","","","5","7","2061",""
"5402","0","html-button-response","193","1708717","0.0-192.0","5f1c2ebf1d8b7c48ad3ec3db","5f1c2ebf1d8b7c48ad3ec3db_20240207","","","","5","5","594",""
"3754","0","html-button-response","194","1712990","0.0-193.0","5f1c2ebf1d8b7c48ad3ec3db","5f1c2ebf1d8b7c48ad3ec3db_20240207","","","","5","1","1936",""
"5220","0","html-button-response","195","1718727","0.0-194.0","5f1c2ebf1d8b7c48ad3ec3db","5f1c2ebf1d8b7c48ad3ec3db_20240207","","","","4","5","786",""
"4648","0","html-button-response","196","1723889","0.0-195.0","5f1c2ebf1d8b7c48ad3ec3db","5f1c2ebf1d8b7c48ad3ec3db_20240207","","","","5","5","994",""
"4119","0","html-button-response","197","1728521","0.0-196.0","5f1c2ebf1d8b7c48ad3ec3db","5f1c2ebf1d8b7c48ad3ec3db_20240207","","","","7","5","229",""
"3646","0","html-button-response","198","1732677","0.0-197.0","5f1c2ebf1d8b7c48ad3ec3db","5f1c2ebf1d8b7c48ad3ec3db_20240207","","","","5","1","1037",""
"4224","0","html-button-response","199","1737415","0.0-198.0","5f1c2ebf1d8b7c48ad3ec3db","5f1c2ebf1d8b7c48ad3ec3db_20240207","","","","5","5","2006",""
"5546","0","html-button-response","200","1743468","0.0-199.0","5f1c2ebf1d8b7c48ad3ec3db","5f1c2ebf1d8b7c48ad3ec3db_20240207","","","","4","6","1448",""
"4631","0","html-button-response","201","1748614","0.0-200.0","5f1c2ebf1d8b7c48ad3ec3db","5f1c2ebf1d8b7c48ad3ec3db_20240207","","","","3","5","946",""
"6441","0","html-button-response","202","1755567","0.0-201.0","5f1c2ebf1d8b7c48ad3ec3db","5f1c2ebf1d8b7c48ad3ec3db_20240207","","","","3","2","832",""
"4271","0","html-button-response","203","1760346","0.0-202.0","5f1c2ebf1d8b7c48ad3ec3db","5f1c2ebf1d8b7c48ad3ec3db_20240207","","","","5","5","2179",""
"4020","0","html-button-response","204","1764875","0.0-203.0","5f1c2ebf1d8b7c48ad3ec3db","5f1c2ebf1d8b7c48ad3ec3db_20240207","","","","4","2","1581",""
"3441","0","html-button-response","205","1768832","0.0-204.0","5f1c2ebf1d8b7c48ad3ec3db","5f1c2ebf1d8b7c48ad3ec3db_20240207","","","","5","5","1179",""
"6690","0","html-button-response","206","1776038","0.0-205.0","5f1c2ebf1d8b7c48ad3ec3db","5f1c2ebf1d8b7c48ad3ec3db_20240207","","","","4","6","2162",""
"4371","0","html-button-response","207","1780921","0.0-206.0","5f1c2ebf1d8b7c48ad3ec3db","5f1c2ebf1d8b7c48ad3ec3db_20240207","","","","4","6","1606",""
"4003","0","html-button-response","208","1785443","0.0-207.0","5f1c2ebf1d8b7c48ad3ec3db","5f1c2ebf1d8b7c48ad3ec3db_20240207","","","","5","5","1830",""
"3794","0","html-button-response","209","1789752","0.0-208.0","5f1c2ebf1d8b7c48ad3ec3db","5f1c2ebf1d8b7c48ad3ec3db_20240207","","","","5","1","1234",""
"3710","0","html-button-response","210","1793969","0.0-209.0","5f1c2ebf1d8b7c48ad3ec3db","5f1c2ebf1d8b7c48ad3ec3db_20240207","","","","5","1","375",""
"4631","0","html-button-response","211","1799120","0.0-210.0","5f1c2ebf1d8b7c48ad3ec3db","5f1c2ebf1d8b7c48ad3ec3db_20240207","","","","7","1","687",""
"3774","0","html-button-response","212","1803412","0.0-211.0","5f1c2ebf1d8b7c48ad3ec3db","5f1c2ebf1d8b7c48ad3ec3db_20240207","","","","9","5","526",""
"5246","0","html-button-response","213","1809174","0.0-212.0","5f1c2ebf1d8b7c48ad3ec3db","5f1c2ebf1d8b7c48ad3ec3db_20240207","","","","4","3","753",""
"4886","0","html-button-response","214","1814577","0.0-213.0","5f1c2ebf1d8b7c48ad3ec3db","5f1c2ebf1d8b7c48ad3ec3db_20240207","","","","3","4","2092",""
"4432","0","html-button-response","215","1819517","0.0-214.0","5f1c2ebf1d8b7c48ad3ec3db","5f1c2ebf1d8b7c48ad3ec3db_20240207","","","","5","9","1562",""
"4084","0","html-button-response","216","1824119","0.0-215.0","5f1c2ebf1d8b7c48ad3ec3db","5f1c2ebf1d8b7c48ad3ec3db_20240207","","","","7","9","1200",""
"6032","0","html-button-response","217","1830669","0.0-216.0","5f1c2ebf1d8b7c48ad3ec3db","5f1c2ebf1d8b7c48ad3ec3db_20240207","","","","7","4","231",""
"4768","0","html-button-response","218","1835945","0.0-217.0","5f1c2ebf1d8b7c48ad3ec3db","5f1c2ebf1d8b7c48ad3ec3db_20240207","","","","9","5","275",""
"4591","0","html-button-response","219","1841047","0.0-218.0","5f1c2ebf1d8b7c48ad3ec3db","5f1c2ebf1d8b7c48ad3ec3db_20240207","","","","5","5","1487",""
"3677","0","html-button-response","220","1845244","0.0-219.0","5f1c2ebf1d8b7c48ad3ec3db","5f1c2ebf1d8b7c48ad3ec3db_20240207","","","","5","1","1482",""
"5084","0","html-button-response","221","1850844","0.0-220.0","5f1c2ebf1d8b7c48ad3ec3db","5f1c2ebf1d8b7c48ad3ec3db_20240207","","","","5","1","910",""
"4022","0","html-button-response","222","1855386","0.0-221.0","5f1c2ebf1d8b7c48ad3ec3db","5f1c2ebf1d8b7c48ad3ec3db_20240207","","","","5","1","1065",""
"3532","0","html-button-response","223","1859426","0.0-222.0","5f1c2ebf1d8b7c48ad3ec3db","5f1c2ebf1d8b7c48ad3ec3db_20240207","","","","5","5","2161",""
"4333","0","html-button-response","224","1864265","0.0-223.0","5f1c2ebf1d8b7c48ad3ec3db","5f1c2ebf1d8b7c48ad3ec3db_20240207","","","","5","5","2008",""
"4147","0","html-button-response","225","1868921","0.0-224.0","5f1c2ebf1d8b7c48ad3ec3db","5f1c2ebf1d8b7c48ad3ec3db_20240207","","","","5","5","667",""
"1438","0","html-button-response","226","1870866","0.0-225.0","5f1c2ebf1d8b7c48ad3ec3db","5f1c2ebf1d8b7c48ad3ec3db_20240207","","","Thank you. You have reached the end. 
                       <br>Click the button below to reveal your compensation.
                        <br><br>","","","","195,2141,1010,578,896,2032,1528,1421,702,339,1895,1295,472,1548,1792,1511,700,1624,1319,1092,517,2096,1663,1927,1832,620,1690,851,1356,1988,575,166,806,1889,1679,1886,1781,724,451,1983,1549,1041,1049,1947,1861,1207,2180,406,1840,990,1035,2130,127,1807,314,1365,2164,186,1612,43,1763,763,659,1176,1004,937,1342,877,595,680,1289,531,621,1900,1138,925,813,541,647,611,631,2101,417,1619,1124,2126,800,1632,1843,1808,18,212,402,2082,1205,685,1192,1428,206,248,243,304,2081,838,1321,1958,1926,381,831,2174,466,841,242,38,26,1386,1741,1629,305,507,367,1626,908,446,2113,1817,2068,615,1568,438,672,1230,179,1405,1908,1823,2193,1175,131,335,1567,1869,1168,2063,1258,1144,944,1086,892,538,790,1102,1063,2100,105,907,2105,521,1261,1776,215,274,2011,52,1733,2087,1298,495,1517,342,1836,2175,1100,1800,2112,1554,845,336,1481,748,1783,221,139,1146,1543,2152,2061,594,1936,786,994,229,1037,2006,1448,946,832,2179,1581,1179,2162,1606,1830,1234,375,687,526,753,2092,1562,1200,231,275,1487,1482,910,1065,2161,2008,667"
