"rt","response","trial_type","trial_index","time_elapsed","internal_node_id","part_ID","ID_DATE","screen_id","understand_correct","stimulus","arousal","valence","img_id","tested_trial_idx"
"15596","0","html-button-response","0","15598","0.0-0.0","62c9ed717a2882d689eb27c1","62c9ed717a2882d689eb27c1_20240207","","","","","","",""
"6407","[object Object]","survey-html-form","1","22513","0.0-1.0","62c9ed717a2882d689eb27c1","62c9ed717a2882d689eb27c1_20240207","prolific_id_page","","","","","",""
"40085","0","html-button-response","2","62599","0.0-2.0","62c9ed717a2882d689eb27c1","62c9ed717a2882d689eb27c1_20240207","","","","","","",""
"34245","0","html-button-response","3","97351","0.0-3.0-0.0","62c9ed717a2882d689eb27c1","62c9ed717a2882d689eb27c1_20240207","","true","","","","",""
"1216","0","html-button-response","4","99069","0.0-4.0","62c9ed717a2882d689eb27c1","62c9ed717a2882d689eb27c1_20240207","","","
<div>
Great! You will now go on to rate the faces.
<br><br>
</div>
","","","",""
"6842","0","html-button-response","5","106415","0.0-5.0","62c9ed717a2882d689eb27c1","62c9ed717a2882d689eb27c1_20240207","","","","2","4","1156",""
"5464","0","html-button-response","6","112393","0.0-6.0","62c9ed717a2882d689eb27c1","62c9ed717a2882d689eb27c1_20240207","","","","7","7","1722",""
"7502","0","html-button-response","7","120403","0.0-7.0","62c9ed717a2882d689eb27c1","62c9ed717a2882d689eb27c1_20240207","","","","4","6","1629",""
"10831","0","html-button-response","8","131745","0.0-8.0","62c9ed717a2882d689eb27c1","62c9ed717a2882d689eb27c1_20240207","","","","6","5","889",""
"4875","0","html-button-response","9","137134","0.0-9.0","62c9ed717a2882d689eb27c1","62c9ed717a2882d689eb27c1_20240207","","","","5","5","1333",""
"6454","0","html-button-response","10","144100","0.0-10.0","62c9ed717a2882d689eb27c1","62c9ed717a2882d689eb27c1_20240207","","","","5","5","1177",""
"7536","0","html-button-response","11","152138","0.0-11.0","62c9ed717a2882d689eb27c1","62c9ed717a2882d689eb27c1_20240207","","","","7","2","518",""
"4537","0","html-button-response","12","157177","0.0-12.0","62c9ed717a2882d689eb27c1","62c9ed717a2882d689eb27c1_20240207","","","","8","8","1928",""
"5155","0","html-button-response","13","162847","0.0-13.0","62c9ed717a2882d689eb27c1","62c9ed717a2882d689eb27c1_20240207","","","","5","4","1169",""
"5680","0","html-button-response","14","169044","0.0-14.0","62c9ed717a2882d689eb27c1","62c9ed717a2882d689eb27c1_20240207","","","","3","2","1894",""
"4202","0","html-button-response","15","173761","0.0-15.0","62c9ed717a2882d689eb27c1","62c9ed717a2882d689eb27c1_20240207","","","","6","6","1470",""
"12861","0","html-button-response","16","187131","0.0-16.0","62c9ed717a2882d689eb27c1","62c9ed717a2882d689eb27c1_20240207","","","","6","5","2019",""
"15150","0","html-button-response","17","202796","0.0-17.0","62c9ed717a2882d689eb27c1","62c9ed717a2882d689eb27c1_20240207","","","","6","5","109",""
"4512","0","html-button-response","18","207811","0.0-18.0","62c9ed717a2882d689eb27c1","62c9ed717a2882d689eb27c1_20240207","","","","6","5","746",""
"4778","0","html-button-response","19","213101","0.0-19.0","62c9ed717a2882d689eb27c1","62c9ed717a2882d689eb27c1_20240207","","","","7","4","9",""
"4778","0","html-button-response","20","218383","0.0-20.0","62c9ed717a2882d689eb27c1","62c9ed717a2882d689eb27c1_20240207","","","","5","3","1024",""
"3009","0","html-button-response","21","221908","0.0-21.0","62c9ed717a2882d689eb27c1","62c9ed717a2882d689eb27c1_20240207","","","","5","5","799",""
"6700","0","html-button-response","22","229115","0.0-22.0","62c9ed717a2882d689eb27c1","62c9ed717a2882d689eb27c1_20240207","","","","3","5","468",""
"4828","0","html-button-response","23","234448","0.0-23.0","62c9ed717a2882d689eb27c1","62c9ed717a2882d689eb27c1_20240207","","","","6","3","1258",""
"5958","0","html-button-response","24","240921","0.0-24.0","62c9ed717a2882d689eb27c1","62c9ed717a2882d689eb27c1_20240207","","","","3","5","331",""
"3367","0","html-button-response","25","244798","0.0-25.0","62c9ed717a2882d689eb27c1","62c9ed717a2882d689eb27c1_20240207","","","","6","5","1080",""
"4608","0","html-button-response","26","249922","0.0-26.0","62c9ed717a2882d689eb27c1","62c9ed717a2882d689eb27c1_20240207","","","","7","6","1215",""
"4508","0","html-button-response","27","254940","0.0-27.0","62c9ed717a2882d689eb27c1","62c9ed717a2882d689eb27c1_20240207","","","","6","6","1798",""
"7371","0","html-button-response","28","262818","0.0-28.0","62c9ed717a2882d689eb27c1","62c9ed717a2882d689eb27c1_20240207","","","","7","4","34",""
"3154","0","html-button-response","29","266484","0.0-29.0","62c9ed717a2882d689eb27c1","62c9ed717a2882d689eb27c1_20240207","","","","7","4","398",""
"6592","0","html-button-response","30","273585","0.0-30.0","62c9ed717a2882d689eb27c1","62c9ed717a2882d689eb27c1_20240207","","","","6","5","794",""
"4992","0","html-button-response","31","279081","0.0-31.0","62c9ed717a2882d689eb27c1","62c9ed717a2882d689eb27c1_20240207","","","","6","5","81",""
"4879","0","html-button-response","32","284461","0.0-32.0","62c9ed717a2882d689eb27c1","62c9ed717a2882d689eb27c1_20240207","","","","6","4","372",""
"5351","0","html-button-response","33","290327","0.0-33.0","62c9ed717a2882d689eb27c1","62c9ed717a2882d689eb27c1_20240207","","","","3","5","1272",""
"2540","0","html-button-response","34","293373","0.0-34.0","62c9ed717a2882d689eb27c1","62c9ed717a2882d689eb27c1_20240207","","","","7","5","83",""
"4021","0","html-button-response","35","297907","0.0-35.0","62c9ed717a2882d689eb27c1","62c9ed717a2882d689eb27c1_20240207","","","","6","6","1834",""
"6799","0","html-button-response","36","305208","0.0-36.0","62c9ed717a2882d689eb27c1","62c9ed717a2882d689eb27c1_20240207","","","","6","6","228",""
"3098","0","html-button-response","37","308811","0.0-37.0","62c9ed717a2882d689eb27c1","62c9ed717a2882d689eb27c1_20240207","","","","3","3","1259",""
"7060","0","html-button-response","38","316383","0.0-38.0","62c9ed717a2882d689eb27c1","62c9ed717a2882d689eb27c1_20240207","","","","2","7","169",""
"4239","0","html-button-response","39","321124","0.0-39.0","62c9ed717a2882d689eb27c1","62c9ed717a2882d689eb27c1_20240207","","","","2","5","766",""
"3225","0","html-button-response","40","324853","0.0-40.0","62c9ed717a2882d689eb27c1","62c9ed717a2882d689eb27c1_20240207","","","","4","5","152",""
"4201","0","html-button-response","41","329558","0.0-41.0","62c9ed717a2882d689eb27c1","62c9ed717a2882d689eb27c1_20240207","","","","7","5","510",""
"6079","0","html-button-response","42","336149","0.0-42.0","62c9ed717a2882d689eb27c1","62c9ed717a2882d689eb27c1_20240207","","","","6","8","1656",""
"3251","0","html-button-response","43","339903","0.0-43.0","62c9ed717a2882d689eb27c1","62c9ed717a2882d689eb27c1_20240207","","","","5","5","2141",""
"6018","0","html-button-response","44","346434","0.0-44.0","62c9ed717a2882d689eb27c1","62c9ed717a2882d689eb27c1_20240207","","","","3","3","1727",""
"3636","0","html-button-response","45","350584","0.0-45.0","62c9ed717a2882d689eb27c1","62c9ed717a2882d689eb27c1_20240207","","","","7","5","395",""
"3120","0","html-button-response","46","354205","0.0-46.0","62c9ed717a2882d689eb27c1","62c9ed717a2882d689eb27c1_20240207","","","","2","5","1612",""
"3584","0","html-button-response","47","358297","0.0-47.0","62c9ed717a2882d689eb27c1","62c9ed717a2882d689eb27c1_20240207","","","","2","3","1208",""
"3127","0","html-button-response","48","361933","0.0-48.0","62c9ed717a2882d689eb27c1","62c9ed717a2882d689eb27c1_20240207","","","","5","5","1013",""
"5485","0","html-button-response","49","367934","0.0-49.0","62c9ed717a2882d689eb27c1","62c9ed717a2882d689eb27c1_20240207","","","","4","5","499",""
"4209","0","html-button-response","50","372653","0.0-50.0","62c9ed717a2882d689eb27c1","62c9ed717a2882d689eb27c1_20240207","","","","7","5","120",""
"4615","0","html-button-response","51","377781","0.0-51.0","62c9ed717a2882d689eb27c1","62c9ed717a2882d689eb27c1_20240207","","","","8","9","2072",""
"4206","0","html-button-response","52","382491","0.0-52.0","62c9ed717a2882d689eb27c1","62c9ed717a2882d689eb27c1_20240207","","","","6","7","1083",""
"6581","0","html-button-response","53","389574","0.0-53.0","62c9ed717a2882d689eb27c1","62c9ed717a2882d689eb27c1_20240207","","","","7","5","86",""
"8754","0","html-button-response","54","398843","0.0-54.0","62c9ed717a2882d689eb27c1","62c9ed717a2882d689eb27c1_20240207","","","","5","6","1632",""
"6316","0","html-button-response","55","405669","0.0-55.0","62c9ed717a2882d689eb27c1","62c9ed717a2882d689eb27c1_20240207","","","","2","4","482",""
"3540","0","html-button-response","56","409715","0.0-56.0","62c9ed717a2882d689eb27c1","62c9ed717a2882d689eb27c1_20240207","","","","2","3","1286",""
"9161","0","html-button-response","57","419383","0.0-57.0","62c9ed717a2882d689eb27c1","62c9ed717a2882d689eb27c1_20240207","","","","8","2","375",""
"2479","0","html-button-response","58","422378","0.0-58.0","62c9ed717a2882d689eb27c1","62c9ed717a2882d689eb27c1_20240207","","","","5","5","1830",""
"4221","0","html-button-response","59","427103","0.0-59.0","62c9ed717a2882d689eb27c1","62c9ed717a2882d689eb27c1_20240207","","","","5","5","837",""
"5129","0","html-button-response","60","432745","0.0-60.0","62c9ed717a2882d689eb27c1","62c9ed717a2882d689eb27c1_20240207","","","","7","2","1728",""
"2636","0","html-button-response","61","435890","0.0-61.0","62c9ed717a2882d689eb27c1","62c9ed717a2882d689eb27c1_20240207","","","","5","5","1634",""
"3524","0","html-button-response","62","439924","0.0-62.0","62c9ed717a2882d689eb27c1","62c9ed717a2882d689eb27c1_20240207","","","","7","2","1053",""
"6650","0","html-button-response","63","447078","0.0-63.0","62c9ed717a2882d689eb27c1","62c9ed717a2882d689eb27c1_20240207","","","","7","5","1737",""
"4474","0","html-button-response","64","452061","0.0-64.0","62c9ed717a2882d689eb27c1","62c9ed717a2882d689eb27c1_20240207","","","","4","6","1122",""
"4390","0","html-button-response","65","456958","0.0-65.0","62c9ed717a2882d689eb27c1","62c9ed717a2882d689eb27c1_20240207","","","","8","2","881",""
"5121","0","html-button-response","66","462583","0.0-66.0","62c9ed717a2882d689eb27c1","62c9ed717a2882d689eb27c1_20240207","","","","4","6","1005",""
"6871","0","html-button-response","67","469960","0.0-67.0","62c9ed717a2882d689eb27c1","62c9ed717a2882d689eb27c1_20240207","","","","7","5","1710",""
"4779","0","html-button-response","68","475244","0.0-68.0","62c9ed717a2882d689eb27c1","62c9ed717a2882d689eb27c1_20240207","","","","3","5","982",""
"3280","0","html-button-response","69","479028","0.0-69.0","62c9ed717a2882d689eb27c1","62c9ed717a2882d689eb27c1_20240207","","","","6","3","1079",""
"6242","0","html-button-response","70","485774","0.0-70.0","62c9ed717a2882d689eb27c1","62c9ed717a2882d689eb27c1_20240207","","","","4","4","1650",""
"4909","0","html-button-response","71","491195","0.0-71.0","62c9ed717a2882d689eb27c1","62c9ed717a2882d689eb27c1_20240207","","","","6","6","629",""
"5453","0","html-button-response","72","497161","0.0-72.0","62c9ed717a2882d689eb27c1","62c9ed717a2882d689eb27c1_20240207","","","","5","2","1910",""
"7935","0","html-button-response","73","505602","0.0-73.0","62c9ed717a2882d689eb27c1","62c9ed717a2882d689eb27c1_20240207","","","","4","6","994",""
"5931","0","html-button-response","74","512035","0.0-74.0","62c9ed717a2882d689eb27c1","62c9ed717a2882d689eb27c1_20240207","","","","6","5","990",""
"3695","0","html-button-response","75","516236","0.0-75.0","62c9ed717a2882d689eb27c1","62c9ed717a2882d689eb27c1_20240207","","","","7","5","110",""
"6337","0","html-button-response","76","523082","0.0-76.0","62c9ed717a2882d689eb27c1","62c9ed717a2882d689eb27c1_20240207","","","","5","7","1460",""
"5093","0","html-button-response","77","528678","0.0-77.0","62c9ed717a2882d689eb27c1","62c9ed717a2882d689eb27c1_20240207","","","","4","5","1295",""
"4555","0","html-button-response","78","533736","0.0-78.0","62c9ed717a2882d689eb27c1","62c9ed717a2882d689eb27c1_20240207","","","","3","4","1620",""
"7201","0","html-button-response","79","541442","0.0-79.0","62c9ed717a2882d689eb27c1","62c9ed717a2882d689eb27c1_20240207","","","","6","6","592",""
"3636","0","html-button-response","80","545580","0.0-80.0","62c9ed717a2882d689eb27c1","62c9ed717a2882d689eb27c1_20240207","","","","7","5","183",""
"3996","0","html-button-response","81","550083","0.0-81.0","62c9ed717a2882d689eb27c1","62c9ed717a2882d689eb27c1_20240207","","","","7","7","2148",""
"4791","0","html-button-response","82","555383","0.0-82.0","62c9ed717a2882d689eb27c1","62c9ed717a2882d689eb27c1_20240207","","","","7","6","1263",""
"8166","0","html-button-response","83","564052","0.0-83.0","62c9ed717a2882d689eb27c1","62c9ed717a2882d689eb27c1_20240207","","","","6","2","1895",""
"4653","0","html-button-response","84","569207","0.0-84.0","62c9ed717a2882d689eb27c1","62c9ed717a2882d689eb27c1_20240207","","","","6","6","1823",""
"4112","0","html-button-response","85","573825","0.0-85.0","62c9ed717a2882d689eb27c1","62c9ed717a2882d689eb27c1_20240207","","","","3","3","2197",""
"5282","0","html-button-response","86","579619","0.0-86.0","62c9ed717a2882d689eb27c1","62c9ed717a2882d689eb27c1_20240207","","","","7","5","317",""
"3331","0","html-button-response","87","583465","0.0-87.0","62c9ed717a2882d689eb27c1","62c9ed717a2882d689eb27c1_20240207","","","","7","6","1809",""
"3296","0","html-button-response","88","587267","0.0-88.0","62c9ed717a2882d689eb27c1","62c9ed717a2882d689eb27c1_20240207","","","","5","5","1139",""
"5364","0","html-button-response","89","593141","0.0-89.0","62c9ed717a2882d689eb27c1","62c9ed717a2882d689eb27c1_20240207","","","","7","5","252",""
"4329","0","html-button-response","90","597978","0.0-90.0","62c9ed717a2882d689eb27c1","62c9ed717a2882d689eb27c1_20240207","","","","4","5","1776",""
"3720","0","html-button-response","91","602213","0.0-91.0","62c9ed717a2882d689eb27c1","62c9ed717a2882d689eb27c1_20240207","","","","3","3","947",""
"5273","0","html-button-response","92","607989","0.0-92.0","62c9ed717a2882d689eb27c1","62c9ed717a2882d689eb27c1_20240207","","","","2","5","636",""
"11355","0","html-button-response","93","619861","0.0-93.0","62c9ed717a2882d689eb27c1","62c9ed717a2882d689eb27c1_20240207","","","","4","3","403",""
"4514","0","html-button-response","94","624886","0.0-94.0","62c9ed717a2882d689eb27c1","62c9ed717a2882d689eb27c1_20240207","","","","7","5","576",""
"7444","0","html-button-response","95","632843","0.0-95.0","62c9ed717a2882d689eb27c1","62c9ed717a2882d689eb27c1_20240207","","","","6","6","2134",""
"3851","0","html-button-response","96","637207","0.0-96.0","62c9ed717a2882d689eb27c1","62c9ed717a2882d689eb27c1_20240207","","","","8","7","1731",""
"3891","0","html-button-response","97","641614","0.0-97.0","62c9ed717a2882d689eb27c1","62c9ed717a2882d689eb27c1_20240207","","","","4","3","1711",""
"6377","0","html-button-response","98","648495","0.0-98.0","62c9ed717a2882d689eb27c1","62c9ed717a2882d689eb27c1_20240207","","","","3","6","426",""
"4820","0","html-button-response","99","653830","0.0-99.0","62c9ed717a2882d689eb27c1","62c9ed717a2882d689eb27c1_20240207","","","","7","2","1061",""
"7333","0","html-button-response","100","661670","0.0-100.0","62c9ed717a2882d689eb27c1","62c9ed717a2882d689eb27c1_20240207","","","","6","3","1055",""
"5322","0","html-button-response","101","667505","0.0-101.0","62c9ed717a2882d689eb27c1","62c9ed717a2882d689eb27c1_20240207","","","","3","6","786",""
"6614","0","html-button-response","102","674624","0.0-102.0","62c9ed717a2882d689eb27c1","62c9ed717a2882d689eb27c1_20240207","","","","7","5","848",""
"3876","0","html-button-response","103","679011","0.0-103.0","62c9ed717a2882d689eb27c1","62c9ed717a2882d689eb27c1_20240207","","","","3","3","1859",""
"10601","0","html-button-response","104","690126","0.0-104.0","62c9ed717a2882d689eb27c1","62c9ed717a2882d689eb27c1_20240207","","","","4","5","1856",""
"5612","0","html-button-response","105","696244","0.0-105.0","62c9ed717a2882d689eb27c1","62c9ed717a2882d689eb27c1_20240207","","","","6","4","357",""
"6763","0","html-button-response","106","703518","0.0-106.0","62c9ed717a2882d689eb27c1","62c9ed717a2882d689eb27c1_20240207","","","","4","2","1716",""
"3156","0","html-button-response","107","707182","0.0-107.0","62c9ed717a2882d689eb27c1","62c9ed717a2882d689eb27c1_20240207","","","","3","2","909",""
"4396","0","html-button-response","108","712094","0.0-108.0","62c9ed717a2882d689eb27c1","62c9ed717a2882d689eb27c1_20240207","","","","3","1","545",""
"2745","0","html-button-response","109","715349","0.0-109.0","62c9ed717a2882d689eb27c1","62c9ed717a2882d689eb27c1_20240207","","","","7","7","1718",""
"2835","0","html-button-response","110","718686","0.0-110.0","62c9ed717a2882d689eb27c1","62c9ed717a2882d689eb27c1_20240207","","","","7","7","1875",""
"8453","0","html-button-response","111","727646","0.0-111.0","62c9ed717a2882d689eb27c1","62c9ed717a2882d689eb27c1_20240207","","","","7","7","1695",""
"8512","0","html-button-response","112","736662","0.0-112.0","62c9ed717a2882d689eb27c1","62c9ed717a2882d689eb27c1_20240207","","","","2","5","247",""
"4691","0","html-button-response","113","741858","0.0-113.0","62c9ed717a2882d689eb27c1","62c9ed717a2882d689eb27c1_20240207","","","","7","6","1925",""
"5783","0","html-button-response","114","748148","0.0-114.0","62c9ed717a2882d689eb27c1","62c9ed717a2882d689eb27c1_20240207","","","","3","5","263",""
"4677","0","html-button-response","115","753342","0.0-115.0","62c9ed717a2882d689eb27c1","62c9ed717a2882d689eb27c1_20240207","","","","5","4","1141",""
"3446","0","html-button-response","116","757299","0.0-116.0","62c9ed717a2882d689eb27c1","62c9ed717a2882d689eb27c1_20240207","","","","6","6","1228",""
"2575","0","html-button-response","117","760381","0.0-117.0","62c9ed717a2882d689eb27c1","62c9ed717a2882d689eb27c1_20240207","","","","5","5","1331",""
"5753","0","html-button-response","118","766649","0.0-118.0","62c9ed717a2882d689eb27c1","62c9ed717a2882d689eb27c1_20240207","","","","7","1","519",""
"6832","0","html-button-response","119","773983","0.0-119.0","62c9ed717a2882d689eb27c1","62c9ed717a2882d689eb27c1_20240207","","","","6","6","1276",""
"9178","0","html-button-response","120","783677","0.0-120.0","62c9ed717a2882d689eb27c1","62c9ed717a2882d689eb27c1_20240207","","","","4","2","1596",""
"5462","0","html-button-response","121","789646","0.0-121.0","62c9ed717a2882d689eb27c1","62c9ed717a2882d689eb27c1_20240207","","","","3","5","268",""
"3490","0","html-button-response","122","793642","0.0-122.0","62c9ed717a2882d689eb27c1","62c9ed717a2882d689eb27c1_20240207","","","","3","5","279",""
"4767","0","html-button-response","123","798918","0.0-123.0","62c9ed717a2882d689eb27c1","62c9ed717a2882d689eb27c1_20240207","","","","6","5","547",""
"4211","0","html-button-response","124","803644","0.0-124.0","62c9ed717a2882d689eb27c1","62c9ed717a2882d689eb27c1_20240207","","","","4","3","1961",""
"7315","0","html-button-response","125","811469","0.0-125.0","62c9ed717a2882d689eb27c1","62c9ed717a2882d689eb27c1_20240207","","","","6","4","102",""
"3618","0","html-button-response","126","815599","0.0-126.0","62c9ed717a2882d689eb27c1","62c9ed717a2882d689eb27c1_20240207","","","","5","5","981",""
"4668","0","html-button-response","127","820773","0.0-127.0","62c9ed717a2882d689eb27c1","62c9ed717a2882d689eb27c1_20240207","","","","6","6","2186",""
"3856","0","html-button-response","128","825133","0.0-128.0","62c9ed717a2882d689eb27c1","62c9ed717a2882d689eb27c1_20240207","","","","4","3","1429",""
"2546","0","html-button-response","129","828181","0.0-129.0","62c9ed717a2882d689eb27c1","62c9ed717a2882d689eb27c1_20240207","","","","5","5","1323",""
"3231","0","html-button-response","130","831928","0.0-130.0","62c9ed717a2882d689eb27c1","62c9ed717a2882d689eb27c1_20240207","","","","5","5","1853",""
"16636","0","html-button-response","131","849068","0.0-131.0","62c9ed717a2882d689eb27c1","62c9ed717a2882d689eb27c1_20240207","","","","6","5","36",""
"3440","0","html-button-response","132","853014","0.0-132.0","62c9ed717a2882d689eb27c1","62c9ed717a2882d689eb27c1_20240207","","","","4","3","416",""
"5343","0","html-button-response","133","858867","0.0-133.0","62c9ed717a2882d689eb27c1","62c9ed717a2882d689eb27c1_20240207","","","","7","6","95",""
"3171","0","html-button-response","134","862545","0.0-134.0","62c9ed717a2882d689eb27c1","62c9ed717a2882d689eb27c1_20240207","","","","5","5","657",""
"12312","0","html-button-response","135","875363","0.0-135.0","62c9ed717a2882d689eb27c1","62c9ed717a2882d689eb27c1_20240207","","","","6","6","368",""
"2500","0","html-button-response","136","878365","0.0-136.0","62c9ed717a2882d689eb27c1","62c9ed717a2882d689eb27c1_20240207","","","","7","6","289",""
"2272","0","html-button-response","137","881138","0.0-137.0","62c9ed717a2882d689eb27c1","62c9ed717a2882d689eb27c1_20240207","","","","7","6","46",""
"2397","0","html-button-response","138","884045","0.0-138.0","62c9ed717a2882d689eb27c1","62c9ed717a2882d689eb27c1_20240207","","","","6","6","383",""
"5208","0","html-button-response","139","889764","0.0-139.0","62c9ed717a2882d689eb27c1","62c9ed717a2882d689eb27c1_20240207","","","","6","2","362",""
"4690","0","html-button-response","140","894955","0.0-140.0","62c9ed717a2882d689eb27c1","62c9ed717a2882d689eb27c1_20240207","","","","6","7","2088",""
"5411","0","html-button-response","141","900874","0.0-141.0","62c9ed717a2882d689eb27c1","62c9ed717a2882d689eb27c1_20240207","","","","2","6","298",""
"6317","0","html-button-response","142","907699","0.0-142.0","62c9ed717a2882d689eb27c1","62c9ed717a2882d689eb27c1_20240207","","","","3","6","485",""
"3101","0","html-button-response","143","911316","0.0-143.0","62c9ed717a2882d689eb27c1","62c9ed717a2882d689eb27c1_20240207","","","","7","6","549",""
"6965","0","html-button-response","144","918784","0.0-144.0","62c9ed717a2882d689eb27c1","62c9ed717a2882d689eb27c1_20240207","","","","4","5","1000",""
"4917","0","html-button-response","145","924203","0.0-145.0","62c9ed717a2882d689eb27c1","62c9ed717a2882d689eb27c1_20240207","","","","7","4","23",""
"7062","0","html-button-response","146","931777","0.0-146.0","62c9ed717a2882d689eb27c1","62c9ed717a2882d689eb27c1_20240207","","","","3","4","2091",""
"2742","0","html-button-response","147","935028","0.0-147.0","62c9ed717a2882d689eb27c1","62c9ed717a2882d689eb27c1_20240207","","","","7","7","1551",""
"3137","0","html-button-response","148","938668","0.0-148.0","62c9ed717a2882d689eb27c1","62c9ed717a2882d689eb27c1_20240207","","","","5","5","2012",""
"4399","0","html-button-response","149","943569","0.0-149.0","62c9ed717a2882d689eb27c1","62c9ed717a2882d689eb27c1_20240207","","","","3","6","478",""
"2599","0","html-button-response","150","946670","0.0-150.0","62c9ed717a2882d689eb27c1","62c9ed717a2882d689eb27c1_20240207","","","","3","5","841",""
"3926","0","html-button-response","151","951104","0.0-151.0","62c9ed717a2882d689eb27c1","62c9ed717a2882d689eb27c1_20240207","","","","7","5","22",""
"2720","0","html-button-response","152","954325","0.0-152.0","62c9ed717a2882d689eb27c1","62c9ed717a2882d689eb27c1_20240207","","","","5","5","1181",""
"4194","0","html-button-response","153","959035","0.0-153.0","62c9ed717a2882d689eb27c1","62c9ed717a2882d689eb27c1_20240207","","","","6","6","2187",""
"16383","0","html-button-response","154","975923","0.0-154.0","62c9ed717a2882d689eb27c1","62c9ed717a2882d689eb27c1_20240207","","","","6","5","360",""
"4424","0","html-button-response","155","980851","0.0-155.0","62c9ed717a2882d689eb27c1","62c9ed717a2882d689eb27c1_20240207","","","","7","4","1529",""
"2484","0","html-button-response","156","983836","0.0-156.0","62c9ed717a2882d689eb27c1","62c9ed717a2882d689eb27c1_20240207","","","","5","5","1137",""
"5497","0","html-button-response","157","989840","0.0-157.0","62c9ed717a2882d689eb27c1","62c9ed717a2882d689eb27c1_20240207","","","","7","3","1544",""
"4336","0","html-button-response","158","994691","0.0-158.0","62c9ed717a2882d689eb27c1","62c9ed717a2882d689eb27c1_20240207","","","","8","5","2",""
"3426","0","html-button-response","159","998618","0.0-159.0","62c9ed717a2882d689eb27c1","62c9ed717a2882d689eb27c1_20240207","","","","3","3","1246",""
"2688","0","html-button-response","160","1001809","0.0-160.0","62c9ed717a2882d689eb27c1","62c9ed717a2882d689eb27c1_20240207","","","","3","3","688",""
"2377","0","html-button-response","161","1004701","0.0-161.0","62c9ed717a2882d689eb27c1","62c9ed717a2882d689eb27c1_20240207","","","","5","5","1452",""
"4306","0","html-button-response","162","1009508","0.0-162.0","62c9ed717a2882d689eb27c1","62c9ed717a2882d689eb27c1_20240207","","","","8","6","849",""
"2718","0","html-button-response","163","1012730","0.0-163.0","62c9ed717a2882d689eb27c1","62c9ed717a2882d689eb27c1_20240207","","","","3","5","151",""
"4919","0","html-button-response","164","1018155","0.0-164.0","62c9ed717a2882d689eb27c1","62c9ed717a2882d689eb27c1_20240207","","","","2","4","233",""
"3085","0","html-button-response","165","1021751","0.0-165.0","62c9ed717a2882d689eb27c1","62c9ed717a2882d689eb27c1_20240207","","","","7","5","21",""
"4904","0","html-button-response","166","1027166","0.0-166.0","62c9ed717a2882d689eb27c1","62c9ed717a2882d689eb27c1_20240207","","","","8","5","847",""
"6314","0","html-button-response","167","1033996","0.0-167.0","62c9ed717a2882d689eb27c1","62c9ed717a2882d689eb27c1_20240207","","","","4","3","1089",""
"3125","0","html-button-response","168","1037635","0.0-168.0","62c9ed717a2882d689eb27c1","62c9ed717a2882d689eb27c1_20240207","","","","7","6","396",""
"6327","0","html-button-response","169","1044477","0.0-169.0","62c9ed717a2882d689eb27c1","62c9ed717a2882d689eb27c1_20240207","","","","7","5","6",""
"32636","0","html-button-response","170","1077630","0.0-170.0","62c9ed717a2882d689eb27c1","62c9ed717a2882d689eb27c1_20240207","","","","5","3","1247",""
"4651","0","html-button-response","171","1082786","0.0-171.0","62c9ed717a2882d689eb27c1","62c9ed717a2882d689eb27c1_20240207","","","","7","8","1760",""
"4128","0","html-button-response","172","1087421","0.0-172.0","62c9ed717a2882d689eb27c1","62c9ed717a2882d689eb27c1_20240207","","","","2","5","284",""
"4065","0","html-button-response","173","1092002","0.0-173.0","62c9ed717a2882d689eb27c1","62c9ed717a2882d689eb27c1_20240207","","","","6","5","1850",""
"3359","0","html-button-response","174","1095870","0.0-174.0","62c9ed717a2882d689eb27c1","62c9ed717a2882d689eb27c1_20240207","","","","3","4","650",""
"3016","0","html-button-response","175","1099400","0.0-175.0","62c9ed717a2882d689eb27c1","62c9ed717a2882d689eb27c1_20240207","","","","3","5","675",""
"4318","0","html-button-response","176","1104232","0.0-176.0","62c9ed717a2882d689eb27c1","62c9ed717a2882d689eb27c1_20240207","","","","6","6","1510",""
"3683","0","html-button-response","177","1108430","0.0-177.0","62c9ed717a2882d689eb27c1","62c9ed717a2882d689eb27c1_20240207","","","","7","5","265",""
"7003","0","html-button-response","178","1115945","0.0-178.0","62c9ed717a2882d689eb27c1","62c9ed717a2882d689eb27c1_20240207","","","","3","3","1690",""
"5265","0","html-button-response","179","1121714","0.0-179.0","62c9ed717a2882d689eb27c1","62c9ed717a2882d689eb27c1_20240207","","","","7","4","1880",""
"2941","0","html-button-response","180","1125158","0.0-180.0","62c9ed717a2882d689eb27c1","62c9ed717a2882d689eb27c1_20240207","","","","5","5","1453",""
"3442","0","html-button-response","181","1129113","0.0-181.0","62c9ed717a2882d689eb27c1","62c9ed717a2882d689eb27c1_20240207","","","","6","5","749",""
"2434","0","html-button-response","182","1132056","0.0-182.0","62c9ed717a2882d689eb27c1","62c9ed717a2882d689eb27c1_20240207","","","","5","5","1140",""
"2749","0","html-button-response","183","1135307","0.0-183.0","62c9ed717a2882d689eb27c1","62c9ed717a2882d689eb27c1_20240207","","","","7","5","1095",""
"5418","0","html-button-response","184","1141238","0.0-184.0","62c9ed717a2882d689eb27c1","62c9ed717a2882d689eb27c1_20240207","","","","7","1","12",""
"4527","0","html-button-response","185","1146276","0.0-185.0","62c9ed717a2882d689eb27c1","62c9ed717a2882d689eb27c1_20240207","","","","7","7","1939",""
"3284","0","html-button-response","186","1150076","0.0-186.0","62c9ed717a2882d689eb27c1","62c9ed717a2882d689eb27c1_20240207","","","","3","2","2119",""
"2403","0","html-button-response","187","1152994","0.0-187.0","62c9ed717a2882d689eb27c1","62c9ed717a2882d689eb27c1_20240207","","","","7","5","419",""
"4836","0","html-button-response","188","1158334","0.0-188.0","62c9ed717a2882d689eb27c1","62c9ed717a2882d689eb27c1_20240207","","","","6","4","918",""
"3957","0","html-button-response","189","1162795","0.0-189.0","62c9ed717a2882d689eb27c1","62c9ed717a2882d689eb27c1_20240207","","","","2","5","319",""
"4737","0","html-button-response","190","1168039","0.0-190.0","62c9ed717a2882d689eb27c1","62c9ed717a2882d689eb27c1_20240207","","","","6","5","617",""
"4260","0","html-button-response","191","1172808","0.0-191.0","62c9ed717a2882d689eb27c1","62c9ed717a2882d689eb27c1_20240207","","","","3","2","1221",""
"3901","0","html-button-response","192","1177212","0.0-192.0","62c9ed717a2882d689eb27c1","62c9ed717a2882d689eb27c1_20240207","","","","7","7","2095",""
"3237","0","html-button-response","193","1180954","0.0-193.0","62c9ed717a2882d689eb27c1","62c9ed717a2882d689eb27c1_20240207","","","","6","6","1254",""
"5047","0","html-button-response","194","1186505","0.0-194.0","62c9ed717a2882d689eb27c1","62c9ed717a2882d689eb27c1_20240207","","","","3","4","582",""
"2402","0","html-button-response","195","1189410","0.0-195.0","62c9ed717a2882d689eb27c1","62c9ed717a2882d689eb27c1_20240207","","","","5","5","958",""
"3957","0","html-button-response","196","1193871","0.0-196.0","62c9ed717a2882d689eb27c1","62c9ed717a2882d689eb27c1_20240207","","","","3","1","532",""
"2227","0","html-button-response","197","1196611","0.0-197.0","62c9ed717a2882d689eb27c1","62c9ed717a2882d689eb27c1_20240207","","","","5","5","2007",""
"2266","0","html-button-response","198","1199382","0.0-198.0","62c9ed717a2882d689eb27c1","62c9ed717a2882d689eb27c1_20240207","","","","6","5","567",""
"3076","0","html-button-response","199","1202960","0.0-199.0","62c9ed717a2882d689eb27c1","62c9ed717a2882d689eb27c1_20240207","","","","8","7","1706",""
"2538","0","html-button-response","200","1206002","0.0-200.0","62c9ed717a2882d689eb27c1","62c9ed717a2882d689eb27c1_20240207","","","","5","5","1306",""
"2588","0","html-button-response","201","1209098","0.0-201.0","62c9ed717a2882d689eb27c1","62c9ed717a2882d689eb27c1_20240207","","","","5","5","1800",""
"2770","0","html-button-response","202","1212373","0.0-202.0","62c9ed717a2882d689eb27c1","62c9ed717a2882d689eb27c1_20240207","","","","7","7","1952",""
"2540","0","html-button-response","203","1215423","0.0-203.0","62c9ed717a2882d689eb27c1","62c9ed717a2882d689eb27c1_20240207","","","","7","5","82",""
"4408","0","html-button-response","204","1220340","0.0-204.0","62c9ed717a2882d689eb27c1","62c9ed717a2882d689eb27c1_20240207","","","","6","5","1267",""
"3328","0","html-button-response","205","1224176","0.0-205.0","62c9ed717a2882d689eb27c1","62c9ed717a2882d689eb27c1_20240207","","","","3","3","1245",""
"2329","0","html-button-response","206","1227007","0.0-206.0","62c9ed717a2882d689eb27c1","62c9ed717a2882d689eb27c1_20240207","","","","5","5","2009",""
"2812","0","html-button-response","207","1230323","0.0-207.0","62c9ed717a2882d689eb27c1","62c9ed717a2882d689eb27c1_20240207","","","","1","5","142",""
"2154","0","html-button-response","208","1232993","0.0-208.0","62c9ed717a2882d689eb27c1","62c9ed717a2882d689eb27c1_20240207","","","","2","5","334",""
"3338","0","html-button-response","209","1236834","0.0-209.0","62c9ed717a2882d689eb27c1","62c9ed717a2882d689eb27c1_20240207","","","","6","5","587",""
"2741","0","html-button-response","210","1240080","0.0-210.0","62c9ed717a2882d689eb27c1","62c9ed717a2882d689eb27c1_20240207","","","","8","7","2056",""
"2047","0","html-button-response","211","1242636","0.0-211.0","62c9ed717a2882d689eb27c1","62c9ed717a2882d689eb27c1_20240207","","","","5","5","1498",""
"3611","0","html-button-response","212","1246763","0.0-212.0","62c9ed717a2882d689eb27c1","62c9ed717a2882d689eb27c1_20240207","","","","6","2","10",""
"3458","0","html-button-response","213","1250729","0.0-213.0","62c9ed717a2882d689eb27c1","62c9ed717a2882d689eb27c1_20240207","","","","3","4","304",""
"2048","0","html-button-response","214","1253290","0.0-214.0","62c9ed717a2882d689eb27c1","62c9ed717a2882d689eb27c1_20240207","","","","5","5","1491",""
"3512","0","html-button-response","215","1257305","0.0-215.0","62c9ed717a2882d689eb27c1","62c9ed717a2882d689eb27c1_20240207","","","","3","4","1893",""
"5004","0","html-button-response","216","1262812","0.0-216.0","62c9ed717a2882d689eb27c1","62c9ed717a2882d689eb27c1_20240207","","","","4","2","1312",""
"5086","0","html-button-response","217","1268404","0.0-217.0","62c9ed717a2882d689eb27c1","62c9ed717a2882d689eb27c1_20240207","","","","4","6","954",""
"2924","0","html-button-response","218","1271835","0.0-218.0","62c9ed717a2882d689eb27c1","62c9ed717a2882d689eb27c1_20240207","","","","3","2","1885",""
"3122","0","html-button-response","219","1275472","0.0-219.0","62c9ed717a2882d689eb27c1","62c9ed717a2882d689eb27c1_20240207","","","","3","5","295",""
"2567","0","html-button-response","220","1278546","0.0-220.0","62c9ed717a2882d689eb27c1","62c9ed717a2882d689eb27c1_20240207","","","","6","5","564",""
"4881","0","html-button-response","221","1283940","0.0-221.0","62c9ed717a2882d689eb27c1","62c9ed717a2882d689eb27c1_20240207","","","","6","6","1848",""
"2765","0","html-button-response","222","1287216","0.0-222.0","62c9ed717a2882d689eb27c1","62c9ed717a2882d689eb27c1_20240207","","","","3","5","292",""
"2768","0","html-button-response","223","1290500","0.0-223.0","62c9ed717a2882d689eb27c1","62c9ed717a2882d689eb27c1_20240207","","","","7","7","2173",""
"3744","0","html-button-response","224","1294758","0.0-224.0","62c9ed717a2882d689eb27c1","62c9ed717a2882d689eb27c1_20240207","","","","7","5","705",""
"2101","0","html-button-response","225","1297371","0.0-225.0","62c9ed717a2882d689eb27c1","62c9ed717a2882d689eb27c1_20240207","","","Thank you. You have reached the end. 
                       <br>Click the button below to reveal your compensation.
                        <br><br>","","","","1156,1722,1629,889,1333,1177,518,1928,1169,1894,1470,2019,109,746,9,1024,799,468,1258,331,1080,1215,1798,34,398,794,81,372,1272,83,1834,228,1259,169,766,152,510,1656,2141,1727,395,1612,1208,1013,499,120,2072,1083,86,1632,482,1286,375,1830,837,1728,1634,1053,1737,1122,881,1005,1710,982,1079,1650,629,1910,994,990,110,1460,1295,1620,592,183,2148,1263,1895,1823,2197,317,1809,1139,252,1776,947,636,403,576,2134,1731,1711,426,1061,1055,786,848,1859,1856,357,1716,909,545,1718,1875,1695,247,1925,263,1141,1228,1331,519,1276,1596,268,279,547,1961,102,981,2186,1429,1323,1853,36,416,95,657,368,289,46,383,362,2088,298,485,549,1000,23,2091,1551,2012,478,841,22,1181,2187,360,1529,1137,1544,2,1246,688,1452,849,151,233,21,847,1089,396,6,1247,1760,284,1850,650,675,1510,265,1690,1880,1453,749,1140,1095,12,1939,2119,419,918,319,617,1221,2095,1254,582,958,532,2007,567,1706,1306,1800,1952,82,1267,1245,2009,142,334,587,2056,1498,10,304,1491,1893,1312,954,1885,295,564,1848,292,2173,705"
