"rt","response","trial_type","trial_index","time_elapsed","internal_node_id","part_ID","ID_DATE","screen_id","understand_correct","stimulus","arousal","valence","img_id","tested_trial_idx"
"15212","0","html-button-response","0","15214","0.0-0.0","65b50f54fb1adf4ff37c753a","65b50f54fb1adf4ff37c753a_20240207","","","","","","",""
"10230","[object Object]","survey-html-form","1","25949","0.0-1.0","65b50f54fb1adf4ff37c753a","65b50f54fb1adf4ff37c753a_20240207","prolific_id_page","","","","","",""
"25463","0","html-button-response","2","51413","0.0-2.0","65b50f54fb1adf4ff37c753a","65b50f54fb1adf4ff37c753a_20240207","","","","","","",""
"53082","0","html-button-response","3","105006","0.0-3.0-0.0","65b50f54fb1adf4ff37c753a","65b50f54fb1adf4ff37c753a_20240207","","true","","","","",""
"1204","0","html-button-response","4","106718","0.0-4.0","65b50f54fb1adf4ff37c753a","65b50f54fb1adf4ff37c753a_20240207","","","
<div>
Great! You will now go on to rate the faces.
<br><br>
</div>
","","","",""
"30222","0","html-button-response","5","137446","0.0-5.0","65b50f54fb1adf4ff37c753a","65b50f54fb1adf4ff37c753a_20240207","","","","3","2","141",""
"9006","0","html-button-response","6","146958","0.0-6.0","65b50f54fb1adf4ff37c753a","65b50f54fb1adf4ff37c753a_20240207","","","","3","2","1103",""
"10352","0","html-button-response","7","157814","0.0-7.0","65b50f54fb1adf4ff37c753a","65b50f54fb1adf4ff37c753a_20240207","","","","5","5","1334",""
"12364","0","html-button-response","8","170686","0.0-8.0","65b50f54fb1adf4ff37c753a","65b50f54fb1adf4ff37c753a_20240207","","","","8","8","1419",""
"8006","0","html-button-response","9","179198","0.0-9.0","65b50f54fb1adf4ff37c753a","65b50f54fb1adf4ff37c753a_20240207","","","","8","2","133",""
"41549","0","html-button-response","10","221262","0.0-10.0","65b50f54fb1adf4ff37c753a","65b50f54fb1adf4ff37c753a_20240207","","","","9","1","419",""
"4769","0","html-button-response","11","226534","0.0-11.0","65b50f54fb1adf4ff37c753a","65b50f54fb1adf4ff37c753a_20240207","","","","9","1","2",""
"10231","0","html-button-response","12","237277","0.0-12.0","65b50f54fb1adf4ff37c753a","65b50f54fb1adf4ff37c753a_20240207","","","","4","8","2112",""
"7877","0","html-button-response","13","245670","0.0-13.0","65b50f54fb1adf4ff37c753a","65b50f54fb1adf4ff37c753a_20240207","","","","8","3","807",""
"8313","0","html-button-response","14","254485","0.0-14.0","65b50f54fb1adf4ff37c753a","65b50f54fb1adf4ff37c753a_20240207","","","","4","5","1856",""
"7296","0","html-button-response","15","262293","0.0-15.0","65b50f54fb1adf4ff37c753a","65b50f54fb1adf4ff37c753a_20240207","","","","8","8","718",""
"4323","0","html-button-response","16","267118","0.0-16.0","65b50f54fb1adf4ff37c753a","65b50f54fb1adf4ff37c753a_20240207","","","","5","5","1108",""
"9920","0","html-button-response","17","277549","0.0-17.0","65b50f54fb1adf4ff37c753a","65b50f54fb1adf4ff37c753a_20240207","","","","5","4","475",""
"5820","0","html-button-response","18","283878","0.0-18.0","65b50f54fb1adf4ff37c753a","65b50f54fb1adf4ff37c753a_20240207","","","","5","4","1153",""
"5944","0","html-button-response","19","290325","0.0-19.0","65b50f54fb1adf4ff37c753a","65b50f54fb1adf4ff37c753a_20240207","","","","9","9","573",""
"4486","0","html-button-response","20","295326","0.0-20.0","65b50f54fb1adf4ff37c753a","65b50f54fb1adf4ff37c753a_20240207","","","","9","9","576",""
"7301","0","html-button-response","21","303141","0.0-21.0","65b50f54fb1adf4ff37c753a","65b50f54fb1adf4ff37c753a_20240207","","","","3","2","962",""
"6317","0","html-button-response","22","309973","0.0-22.0","65b50f54fb1adf4ff37c753a","65b50f54fb1adf4ff37c753a_20240207","","","","2","1","117",""
"10007","0","html-button-response","23","320486","0.0-23.0","65b50f54fb1adf4ff37c753a","65b50f54fb1adf4ff37c753a_20240207","","","","8","9","1718",""
"8142","0","html-button-response","24","329134","0.0-24.0","65b50f54fb1adf4ff37c753a","65b50f54fb1adf4ff37c753a_20240207","","","","3","1","934",""
"7513","0","html-button-response","25","337150","0.0-25.0","65b50f54fb1adf4ff37c753a","65b50f54fb1adf4ff37c753a_20240207","","","","9","1","458",""
"10670","0","html-button-response","26","348334","0.0-26.0","65b50f54fb1adf4ff37c753a","65b50f54fb1adf4ff37c753a_20240207","","","","2","1","1102",""
"3295","0","html-button-response","27","352134","0.0-27.0","65b50f54fb1adf4ff37c753a","65b50f54fb1adf4ff37c753a_20240207","","","","5","5","944",""
"9464","0","html-button-response","28","362102","0.0-28.0","65b50f54fb1adf4ff37c753a","65b50f54fb1adf4ff37c753a_20240207","","","","6","3","438",""
"773542","0","html-button-response","29","1136157","0.0-29.0","65b50f54fb1adf4ff37c753a","65b50f54fb1adf4ff37c753a_20240207","","","","2","2","641",""
"9383","0","html-button-response","30","1146045","0.0-30.0","65b50f54fb1adf4ff37c753a","65b50f54fb1adf4ff37c753a_20240207","","","","1","2","1337",""
"17936","0","html-button-response","31","1164485","0.0-31.0","65b50f54fb1adf4ff37c753a","65b50f54fb1adf4ff37c753a_20240207","","","","7","8","2075",""
"47517","0","html-button-response","32","1212510","0.0-32.0","65b50f54fb1adf4ff37c753a","65b50f54fb1adf4ff37c753a_20240207","","","","2","1","1609",""
"9445","0","html-button-response","33","1222470","0.0-33.0","65b50f54fb1adf4ff37c753a","65b50f54fb1adf4ff37c753a_20240207","","","","8","6","279",""
"19309","0","html-button-response","34","1242302","0.0-34.0","65b50f54fb1adf4ff37c753a","65b50f54fb1adf4ff37c753a_20240207","","","","2","2","1584",""
"98273","0","html-button-response","35","1341086","0.0-35.0","65b50f54fb1adf4ff37c753a","65b50f54fb1adf4ff37c753a_20240207","","","","7","4","1895",""
"46959","0","html-button-response","36","1388550","0.0-36.0","65b50f54fb1adf4ff37c753a","65b50f54fb1adf4ff37c753a_20240207","","","","3","1","780",""
"12259","0","html-button-response","37","1401318","0.0-37.0","65b50f54fb1adf4ff37c753a","65b50f54fb1adf4ff37c753a_20240207","","","","9","9","1210",""
"8030","0","html-button-response","38","1409853","0.0-38.0","65b50f54fb1adf4ff37c753a","65b50f54fb1adf4ff37c753a_20240207","","","","7","8","1749",""
"1367865","0","html-button-response","39","2778230","0.0-39.0","65b50f54fb1adf4ff37c753a","65b50f54fb1adf4ff37c753a_20240207","","","","9","9","914",""
"5494","0","html-button-response","40","2784237","0.0-40.0","65b50f54fb1adf4ff37c753a","65b50f54fb1adf4ff37c753a_20240207","","","","9","8","902",""
"8863","0","html-button-response","41","2793606","0.0-41.0","65b50f54fb1adf4ff37c753a","65b50f54fb1adf4ff37c753a_20240207","","","","2","7","1304",""
"66747","0","html-button-response","42","2860869","0.0-42.0","65b50f54fb1adf4ff37c753a","65b50f54fb1adf4ff37c753a_20240207","","","","9","1","156",""
"15814","0","html-button-response","43","2877197","0.0-43.0","65b50f54fb1adf4ff37c753a","65b50f54fb1adf4ff37c753a_20240207","","","","2","1","1655",""
"62220","0","html-button-response","44","2939926","0.0-44.0","65b50f54fb1adf4ff37c753a","65b50f54fb1adf4ff37c753a_20240207","","","","1","1","1494",""
"47214","0","html-button-response","45","2987645","0.0-45.0","65b50f54fb1adf4ff37c753a","65b50f54fb1adf4ff37c753a_20240207","","","","7","1","1531",""
"14433","0","html-button-response","46","3002589","0.0-46.0","65b50f54fb1adf4ff37c753a","65b50f54fb1adf4ff37c753a_20240207","","","","3","2","582",""
"7633","0","html-button-response","47","3010726","0.0-47.0","65b50f54fb1adf4ff37c753a","65b50f54fb1adf4ff37c753a_20240207","","","","9","6","599",""
"217009","0","html-button-response","48","3228238","0.0-48.0","65b50f54fb1adf4ff37c753a","65b50f54fb1adf4ff37c753a_20240207","","","","4","8","1615",""
"5502","0","html-button-response","49","3234245","0.0-49.0","65b50f54fb1adf4ff37c753a","65b50f54fb1adf4ff37c753a_20240207","","","","5","6","1823",""
"8545","0","html-button-response","50","3243301","0.0-50.0","65b50f54fb1adf4ff37c753a","65b50f54fb1adf4ff37c753a_20240207","","","","4","4","1256",""
"18721","0","html-button-response","51","3262525","0.0-51.0","65b50f54fb1adf4ff37c753a","65b50f54fb1adf4ff37c753a_20240207","","","","5","5","775",""
"34472","0","html-button-response","52","3297502","0.0-52.0","65b50f54fb1adf4ff37c753a","65b50f54fb1adf4ff37c753a_20240207","","","","7","9","1590",""
"23296","0","html-button-response","53","3321302","0.0-53.0","65b50f54fb1adf4ff37c753a","65b50f54fb1adf4ff37c753a_20240207","","","","2","1","1312",""
"4798","0","html-button-response","54","3326606","0.0-54.0","65b50f54fb1adf4ff37c753a","65b50f54fb1adf4ff37c753a_20240207","","","","9","9","1367",""
"10662","0","html-button-response","55","3337774","0.0-55.0","65b50f54fb1adf4ff37c753a","65b50f54fb1adf4ff37c753a_20240207","","","","8","1","892",""
"7354","0","html-button-response","56","3345630","0.0-56.0","65b50f54fb1adf4ff37c753a","65b50f54fb1adf4ff37c753a_20240207","","","","9","6","929",""
"6654","0","html-button-response","57","3352790","0.0-57.0","65b50f54fb1adf4ff37c753a","65b50f54fb1adf4ff37c753a_20240207","","","","9","9","1409",""
"15547","0","html-button-response","58","3368854","0.0-58.0","65b50f54fb1adf4ff37c753a","65b50f54fb1adf4ff37c753a_20240207","","","","5","4","1101",""
"6280","0","html-button-response","59","3375638","0.0-59.0","65b50f54fb1adf4ff37c753a","65b50f54fb1adf4ff37c753a_20240207","","","","9","9","2055",""
"15292","0","html-button-response","60","3391438","0.0-60.0","65b50f54fb1adf4ff37c753a","65b50f54fb1adf4ff37c753a_20240207","","","","4","1","818",""
"90504","0","html-button-response","61","3482446","0.0-61.0","65b50f54fb1adf4ff37c753a","65b50f54fb1adf4ff37c753a_20240207","","","","7","2","1567",""
"12742","0","html-button-response","62","3495694","0.0-62.0","65b50f54fb1adf4ff37c753a","65b50f54fb1adf4ff37c753a_20240207","","","","2","4","1283",""
"4043","0","html-button-response","63","3500246","0.0-63.0","65b50f54fb1adf4ff37c753a","65b50f54fb1adf4ff37c753a_20240207","","","","5","5","1505",""
"22823","0","html-button-response","64","3523573","0.0-64.0","65b50f54fb1adf4ff37c753a","65b50f54fb1adf4ff37c753a_20240207","","","","5","5","2020",""
"81246","0","html-button-response","65","3605334","0.0-65.0","65b50f54fb1adf4ff37c753a","65b50f54fb1adf4ff37c753a_20240207","","","","9","6","409",""
"9276","0","html-button-response","66","3615117","0.0-66.0","65b50f54fb1adf4ff37c753a","65b50f54fb1adf4ff37c753a_20240207","","","","2","4","1415",""
"44264","0","html-button-response","67","3659894","0.0-67.0","65b50f54fb1adf4ff37c753a","65b50f54fb1adf4ff37c753a_20240207","","","","7","8","1773",""
"64624","0","html-button-response","68","3725022","0.0-68.0","65b50f54fb1adf4ff37c753a","65b50f54fb1adf4ff37c753a_20240207","","","","9","1","139",""
"53530","0","html-button-response","69","3779062","0.0-69.0","65b50f54fb1adf4ff37c753a","65b50f54fb1adf4ff37c753a_20240207","","","","8","1","1550",""
"115633","0","html-button-response","70","3895206","0.0-70.0","65b50f54fb1adf4ff37c753a","65b50f54fb1adf4ff37c753a_20240207","","","","2","1","1208",""
"7202","0","html-button-response","71","3902911","0.0-71.0","65b50f54fb1adf4ff37c753a","65b50f54fb1adf4ff37c753a_20240207","","","","9","9","1744",""
"7377","0","html-button-response","72","3910790","0.0-72.0","65b50f54fb1adf4ff37c753a","65b50f54fb1adf4ff37c753a_20240207","","","","1","3","1961",""
"96218","0","html-button-response","73","4007509","0.0-73.0","65b50f54fb1adf4ff37c753a","65b50f54fb1adf4ff37c753a_20240207","","","","8","3","1374",""
"75047","0","html-button-response","74","4083062","0.0-74.0","65b50f54fb1adf4ff37c753a","65b50f54fb1adf4ff37c753a_20240207","","","","2","2","961",""
"28598","0","html-button-response","75","4112166","0.0-75.0","65b50f54fb1adf4ff37c753a","65b50f54fb1adf4ff37c753a_20240207","","","","9","9","1900",""
"133356","0","html-button-response","76","4246031","0.0-76.0","65b50f54fb1adf4ff37c753a","65b50f54fb1adf4ff37c753a_20240207","","","","8","9","1588",""
"89261","0","html-button-response","77","4335798","0.0-77.0","65b50f54fb1adf4ff37c753a","65b50f54fb1adf4ff37c753a_20240207","","","","7","6","503",""
"206776","0","html-button-response","78","4543085","0.0-78.0","65b50f54fb1adf4ff37c753a","65b50f54fb1adf4ff37c753a_20240207","","","","3","3","844",""
"169910","0","html-button-response","79","4713502","0.0-79.0","65b50f54fb1adf4ff37c753a","65b50f54fb1adf4ff37c753a_20240207","","","","9","6","354",""
"8547","0","html-button-response","80","4722559","0.0-80.0","65b50f54fb1adf4ff37c753a","65b50f54fb1adf4ff37c753a_20240207","","","","5","5","2166",""
"8723","0","html-button-response","81","4731798","0.0-81.0","65b50f54fb1adf4ff37c753a","65b50f54fb1adf4ff37c753a_20240207","","","","1","6","1613",""
"17952","0","html-button-response","82","4750262","0.0-82.0","65b50f54fb1adf4ff37c753a","65b50f54fb1adf4ff37c753a_20240207","","","","7","2","244",""
"648897","0","html-button-response","83","5399664","0.0-83.0","65b50f54fb1adf4ff37c753a","65b50f54fb1adf4ff37c753a_20240207","","","","2","5","1993",""
"13940","0","html-button-response","84","5414118","0.0-84.0","65b50f54fb1adf4ff37c753a","65b50f54fb1adf4ff37c753a_20240207","","","","8","1","374",""
"21379","0","html-button-response","85","5436006","0.0-85.0","65b50f54fb1adf4ff37c753a","65b50f54fb1adf4ff37c753a_20240207","","","","5","5","825",""
"3248","0","html-button-response","86","5439758","0.0-86.0","65b50f54fb1adf4ff37c753a","65b50f54fb1adf4ff37c753a_20240207","","","","5","5","1320",""
"8080","0","html-button-response","87","5448342","0.0-87.0","65b50f54fb1adf4ff37c753a","65b50f54fb1adf4ff37c753a_20240207","","","","1","5","1987",""
"180900","0","html-button-response","88","5629765","0.0-88.0","65b50f54fb1adf4ff37c753a","65b50f54fb1adf4ff37c753a_20240207","","","","5","2","1638",""
"8774","0","html-button-response","89","5639045","0.0-89.0","65b50f54fb1adf4ff37c753a","65b50f54fb1adf4ff37c753a_20240207","","","","6","3","1946",""
"5567","0","html-button-response","90","5645117","0.0-90.0","65b50f54fb1adf4ff37c753a","65b50f54fb1adf4ff37c753a_20240207","","","","9","7","224",""
"6912","0","html-button-response","91","5652533","0.0-91.0","65b50f54fb1adf4ff37c753a","65b50f54fb1adf4ff37c753a_20240207","","","","9","6","196",""
"622128","0","html-button-response","92","6275166","0.0-92.0","65b50f54fb1adf4ff37c753a","65b50f54fb1adf4ff37c753a_20240207","","","","6","8","1275",""
"7946","0","html-button-response","93","6283622","0.0-93.0","65b50f54fb1adf4ff37c753a","65b50f54fb1adf4ff37c753a_20240207","","","","5","6","1826",""
"5837","0","html-button-response","94","6289966","0.0-94.0","65b50f54fb1adf4ff37c753a","65b50f54fb1adf4ff37c753a_20240207","","","","5","8","1411",""
"9860","0","html-button-response","95","6300342","0.0-95.0","65b50f54fb1adf4ff37c753a","65b50f54fb1adf4ff37c753a_20240207","","","","4","3","362",""
"9003","0","html-button-response","96","6309849","0.0-96.0","65b50f54fb1adf4ff37c753a","65b50f54fb1adf4ff37c753a_20240207","","","","8","3","2037",""
"10344","0","html-button-response","97","6320694","0.0-97.0","65b50f54fb1adf4ff37c753a","65b50f54fb1adf4ff37c753a_20240207","","","","9","6","417",""
"12210","0","html-button-response","98","6333406","0.0-98.0","65b50f54fb1adf4ff37c753a","65b50f54fb1adf4ff37c753a_20240207","","","","6","7","2064",""
"23261","0","html-button-response","99","6357185","0.0-99.0","65b50f54fb1adf4ff37c753a","65b50f54fb1adf4ff37c753a_20240207","","","","7","6","715",""
"72383","0","html-button-response","100","6430073","0.0-100.0","65b50f54fb1adf4ff37c753a","65b50f54fb1adf4ff37c753a_20240207","","","","8","4","386",""
"5271","0","html-button-response","101","6435846","0.0-101.0","65b50f54fb1adf4ff37c753a","65b50f54fb1adf4ff37c753a_20240207","","","","8","4","356",""
"30552","0","html-button-response","102","6466909","0.0-102.0","65b50f54fb1adf4ff37c753a","65b50f54fb1adf4ff37c753a_20240207","","","","8","7","1227",""
"11120","0","html-button-response","103","6478534","0.0-103.0","65b50f54fb1adf4ff37c753a","65b50f54fb1adf4ff37c753a_20240207","","","","3","5","1462",""
"613939","0","html-button-response","104","7092976","0.0-104.0","65b50f54fb1adf4ff37c753a","65b50f54fb1adf4ff37c753a_20240207","","","","7","5","1288",""
"9708","0","html-button-response","105","7103189","0.0-105.0","65b50f54fb1adf4ff37c753a","65b50f54fb1adf4ff37c753a_20240207","","","","5","2","2119",""
"6108","0","html-button-response","106","7109821","0.0-106.0","65b50f54fb1adf4ff37c753a","65b50f54fb1adf4ff37c753a_20240207","","","","2","4","824",""
"3712","0","html-button-response","107","7114037","0.0-107.0","65b50f54fb1adf4ff37c753a","65b50f54fb1adf4ff37c753a_20240207","","","","2","3","1012",""
"4257","0","html-button-response","108","7118797","0.0-108.0","65b50f54fb1adf4ff37c753a","65b50f54fb1adf4ff37c753a_20240207","","","","3","5","1325",""
"3352","0","html-button-response","109","7122653","0.0-109.0","65b50f54fb1adf4ff37c753a","65b50f54fb1adf4ff37c753a_20240207","","","","5","5","2012",""
"4880","0","html-button-response","110","7128037","0.0-110.0","65b50f54fb1adf4ff37c753a","65b50f54fb1adf4ff37c753a_20240207","","","","4","5","1608",""
"8554","0","html-button-response","111","7137095","0.0-111.0","65b50f54fb1adf4ff37c753a","65b50f54fb1adf4ff37c753a_20240207","","","","4","4","1273",""
"3814","0","html-button-response","112","7141414","0.0-112.0","65b50f54fb1adf4ff37c753a","65b50f54fb1adf4ff37c753a_20240207","","","","5","5","1296",""
"6576","0","html-button-response","113","7148502","0.0-113.0","65b50f54fb1adf4ff37c753a","65b50f54fb1adf4ff37c753a_20240207","","","","7","7","1255",""
"10050","0","html-button-response","114","7159054","0.0-114.0","65b50f54fb1adf4ff37c753a","65b50f54fb1adf4ff37c753a_20240207","","","","8","9","1915",""
"4640","0","html-button-response","115","7164199","0.0-115.0","65b50f54fb1adf4ff37c753a","65b50f54fb1adf4ff37c753a_20240207","","","","9","9","1189",""
"3455","0","html-button-response","116","7168158","0.0-116.0","65b50f54fb1adf4ff37c753a","65b50f54fb1adf4ff37c753a_20240207","","","","9","9","2085",""
"6457","0","html-button-response","117","7175117","0.0-117.0","65b50f54fb1adf4ff37c753a","65b50f54fb1adf4ff37c753a_20240207","","","","3","6","2147",""
"8667","0","html-button-response","118","7184294","0.0-118.0","65b50f54fb1adf4ff37c753a","65b50f54fb1adf4ff37c753a_20240207","","","","5","6","1581",""
"574855","0","html-button-response","119","7759656","0.0-119.0","65b50f54fb1adf4ff37c753a","65b50f54fb1adf4ff37c753a_20240207","","","","8","4","746",""
"5315700","0","html-button-response","120","13075849","0.0-120.0","65b50f54fb1adf4ff37c753a","65b50f54fb1adf4ff37c753a_20240207","","","","9","9","508",""
"24689","0","html-button-response","121","13101050","0.0-121.0","65b50f54fb1adf4ff37c753a","65b50f54fb1adf4ff37c753a_20240207","","","","3","2","1622",""
"9765","0","html-button-response","122","13111336","0.0-122.0","65b50f54fb1adf4ff37c753a","65b50f54fb1adf4ff37c753a_20240207","","","","8","1","1022",""
"232760","0","html-button-response","123","13344601","0.0-123.0","65b50f54fb1adf4ff37c753a","65b50f54fb1adf4ff37c753a_20240207","","","","5","5","2164",""
"96657","0","html-button-response","124","13441761","0.0-124.0","65b50f54fb1adf4ff37c753a","65b50f54fb1adf4ff37c753a_20240207","","","","3","3","1453",""
"401337","0","html-button-response","125","13843611","0.0-125.0","65b50f54fb1adf4ff37c753a","65b50f54fb1adf4ff37c753a_20240207","","","","9","9","1692",""
"22479","0","html-button-response","126","13866595","0.0-126.0","65b50f54fb1adf4ff37c753a","65b50f54fb1adf4ff37c753a_20240207","","","","8","2","330",""
"6804","0","html-button-response","127","13873905","0.0-127.0","65b50f54fb1adf4ff37c753a","65b50f54fb1adf4ff37c753a_20240207","","","","8","1","39",""
"4177491","0","html-button-response","128","18051901","0.0-128.0","65b50f54fb1adf4ff37c753a","65b50f54fb1adf4ff37c753a_20240207","","","","7","3","1543",""
"14279","0","html-button-response","129","18066685","0.0-129.0","65b50f54fb1adf4ff37c753a","65b50f54fb1adf4ff37c753a_20240207","","","","7","2","1131",""
"8664","0","html-button-response","130","18075853","0.0-130.0","65b50f54fb1adf4ff37c753a","65b50f54fb1adf4ff37c753a_20240207","","","","5","6","1475",""
"4279","0","html-button-response","131","18080644","0.0-131.0","65b50f54fb1adf4ff37c753a","65b50f54fb1adf4ff37c753a_20240207","","","","5","5","957",""
"3845","0","html-button-response","132","18084996","0.0-132.0","65b50f54fb1adf4ff37c753a","65b50f54fb1adf4ff37c753a_20240207","","","","5","5","1473",""
"5423","0","html-button-response","133","18090932","0.0-133.0","65b50f54fb1adf4ff37c753a","65b50f54fb1adf4ff37c753a_20240207","","","","5","4","1297",""
"6252","0","html-button-response","134","18097700","0.0-134.0","65b50f54fb1adf4ff37c753a","65b50f54fb1adf4ff37c753a_20240207","","","","6","7","1265",""
"9822","0","html-button-response","135","18108028","0.0-135.0","65b50f54fb1adf4ff37c753a","65b50f54fb1adf4ff37c753a_20240207","","","","8","9","1406",""
"9555","0","html-button-response","136","18118095","0.0-136.0","65b50f54fb1adf4ff37c753a","65b50f54fb1adf4ff37c753a_20240207","","","","8","1","518",""
"32060","0","html-button-response","137","18150668","0.0-137.0","65b50f54fb1adf4ff37c753a","65b50f54fb1adf4ff37c753a_20240207","","","","3","5","799",""
"8005","0","html-button-response","138","18159182","0.0-138.0","65b50f54fb1adf4ff37c753a","65b50f54fb1adf4ff37c753a_20240207","","","","6","4","809",""
"16505","0","html-button-response","139","18176199","0.0-139.0","65b50f54fb1adf4ff37c753a","65b50f54fb1adf4ff37c753a_20240207","","","","4","2","1261",""
"4404","0","html-button-response","140","18181109","0.0-140.0","65b50f54fb1adf4ff37c753a","65b50f54fb1adf4ff37c753a_20240207","","","","4","2","1104",""
"5232","0","html-button-response","141","18186844","0.0-141.0","65b50f54fb1adf4ff37c753a","65b50f54fb1adf4ff37c753a_20240207","","","","4","3","974",""
"29530","0","html-button-response","142","18216876","0.0-142.0","65b50f54fb1adf4ff37c753a","65b50f54fb1adf4ff37c753a_20240207","","","","8","6","93",""
"5927","0","html-button-response","143","18223308","0.0-143.0","65b50f54fb1adf4ff37c753a","65b50f54fb1adf4ff37c753a_20240207","","","","5","5","2178",""
"6555","0","html-button-response","144","18230368","0.0-144.0","65b50f54fb1adf4ff37c753a","65b50f54fb1adf4ff37c753a_20240207","","","","7","4","470",""
"7154","0","html-button-response","145","18238028","0.0-145.0","65b50f54fb1adf4ff37c753a","65b50f54fb1adf4ff37c753a_20240207","","","","9","6","590",""
"5265","0","html-button-response","146","18243805","0.0-146.0","65b50f54fb1adf4ff37c753a","65b50f54fb1adf4ff37c753a_20240207","","","","9","4","242",""
"4345","0","html-button-response","147","18248660","0.0-147.0","65b50f54fb1adf4ff37c753a","65b50f54fb1adf4ff37c753a_20240207","","","","8","4","593",""
"6983","0","html-button-response","148","18256149","0.0-148.0","65b50f54fb1adf4ff37c753a","65b50f54fb1adf4ff37c753a_20240207","","","","8","8","680",""
"8271","0","html-button-response","149","18264924","0.0-149.0","65b50f54fb1adf4ff37c753a","65b50f54fb1adf4ff37c753a_20240207","","","","6","6","2127",""
"6945","0","html-button-response","150","18272372","0.0-150.0","65b50f54fb1adf4ff37c753a","65b50f54fb1adf4ff37c753a_20240207","","","","8","8","705",""
"34745","0","html-button-response","151","18307628","0.0-151.0","65b50f54fb1adf4ff37c753a","65b50f54fb1adf4ff37c753a_20240207","","","","8","4","1114",""
"9357","0","html-button-response","152","18317492","0.0-152.0","65b50f54fb1adf4ff37c753a","65b50f54fb1adf4ff37c753a_20240207","","","","8","2","1885",""
"10369","0","html-button-response","153","18328364","0.0-153.0","65b50f54fb1adf4ff37c753a","65b50f54fb1adf4ff37c753a_20240207","","","","5","7","1291",""
"8279","0","html-button-response","154","18337148","0.0-154.0","65b50f54fb1adf4ff37c753a","65b50f54fb1adf4ff37c753a_20240207","","","","6","2","151",""
"47424","0","html-button-response","155","18385078","0.0-155.0","65b50f54fb1adf4ff37c753a","65b50f54fb1adf4ff37c753a_20240207","","","","8","3","303",""
"4304","0","html-button-response","156","18389894","0.0-156.0","65b50f54fb1adf4ff37c753a","65b50f54fb1adf4ff37c753a_20240207","","","","8","2","1883",""
"8725","0","html-button-response","157","18399132","0.0-157.0","65b50f54fb1adf4ff37c753a","65b50f54fb1adf4ff37c753a_20240207","","","","8","7","1954",""
"6795","0","html-button-response","158","18406436","0.0-158.0","65b50f54fb1adf4ff37c753a","65b50f54fb1adf4ff37c753a_20240207","","","","8","2","660",""
"43750","0","html-button-response","159","18450692","0.0-159.0","65b50f54fb1adf4ff37c753a","65b50f54fb1adf4ff37c753a_20240207","","","","6","4","1842",""
"7550","0","html-button-response","160","18458749","0.0-160.0","65b50f54fb1adf4ff37c753a","65b50f54fb1adf4ff37c753a_20240207","","","","7","2","1664",""
"9966","0","html-button-response","161","18469220","0.0-161.0","65b50f54fb1adf4ff37c753a","65b50f54fb1adf4ff37c753a_20240207","","","","6","2","1299",""
"9957","0","html-button-response","162","18479692","0.0-162.0","65b50f54fb1adf4ff37c753a","65b50f54fb1adf4ff37c753a_20240207","","","","9","4","100",""
"7737","0","html-button-response","163","18487934","0.0-163.0","65b50f54fb1adf4ff37c753a","65b50f54fb1adf4ff37c753a_20240207","","","","8","3","116",""
"5161","0","html-button-response","164","18493599","0.0-164.0","65b50f54fb1adf4ff37c753a","65b50f54fb1adf4ff37c753a_20240207","","","","9","6","395",""
"5463","0","html-button-response","165","18499567","0.0-165.0","65b50f54fb1adf4ff37c753a","65b50f54fb1adf4ff37c753a_20240207","","","","8","3","806",""
"8031","0","html-button-response","166","18508108","0.0-166.0","65b50f54fb1adf4ff37c753a","65b50f54fb1adf4ff37c753a_20240207","","","","9","2","105",""
"6541","0","html-button-response","167","18515156","0.0-167.0","65b50f54fb1adf4ff37c753a","65b50f54fb1adf4ff37c753a_20240207","","","","7","4","1087",""
"10520","0","html-button-response","168","18526180","0.0-168.0","65b50f54fb1adf4ff37c753a","65b50f54fb1adf4ff37c753a_20240207","","","","9","4","49",""
"10350","0","html-button-response","169","18537037","0.0-169.0","65b50f54fb1adf4ff37c753a","65b50f54fb1adf4ff37c753a_20240207","","","","5","3","2199",""
"16264","0","html-button-response","170","18553812","0.0-170.0","65b50f54fb1adf4ff37c753a","65b50f54fb1adf4ff37c753a_20240207","","","","8","3","11",""
"32106","0","html-button-response","171","18586423","0.0-171.0","65b50f54fb1adf4ff37c753a","65b50f54fb1adf4ff37c753a_20240207","","","","4","7","1302",""
"6448","0","html-button-response","172","18593373","0.0-172.0","65b50f54fb1adf4ff37c753a","65b50f54fb1adf4ff37c753a_20240207","","","","7","9","1537",""
"6462","0","html-button-response","173","18600348","0.0-173.0","65b50f54fb1adf4ff37c753a","65b50f54fb1adf4ff37c753a_20240207","","","","8","3","541",""
"8488","0","html-button-response","174","18609348","0.0-174.0","65b50f54fb1adf4ff37c753a","65b50f54fb1adf4ff37c753a_20240207","","","","2","1","1105",""
"29027","0","html-button-response","175","18638884","0.0-175.0","65b50f54fb1adf4ff37c753a","65b50f54fb1adf4ff37c753a_20240207","","","","9","3","210",""
"3967","0","html-button-response","176","18643365","0.0-176.0","65b50f54fb1adf4ff37c753a","65b50f54fb1adf4ff37c753a_20240207","","","","7","2","1027",""
"3795","0","html-button-response","177","18647676","0.0-177.0","65b50f54fb1adf4ff37c753a","65b50f54fb1adf4ff37c753a_20240207","","","","7","2","557",""
"6615","0","html-button-response","178","18654805","0.0-178.0","65b50f54fb1adf4ff37c753a","65b50f54fb1adf4ff37c753a_20240207","","","","8","3","22",""
"19083","0","html-button-response","179","18674404","0.0-179.0","65b50f54fb1adf4ff37c753a","65b50f54fb1adf4ff37c753a_20240207","","","","5","4","2017",""
"77385","0","html-button-response","180","18752292","0.0-180.0","65b50f54fb1adf4ff37c753a","65b50f54fb1adf4ff37c753a_20240207","","","","6","3","785",""
"37793","0","html-button-response","181","18790588","0.0-181.0","65b50f54fb1adf4ff37c753a","65b50f54fb1adf4ff37c753a_20240207","","","","8","4","82",""
"64808","0","html-button-response","182","18855908","0.0-182.0","65b50f54fb1adf4ff37c753a","65b50f54fb1adf4ff37c753a_20240207","","","","7","3","291",""
"58413","0","html-button-response","183","18914836","0.0-183.0","65b50f54fb1adf4ff37c753a","65b50f54fb1adf4ff37c753a_20240207","","","","9","3","435",""
"4923","0","html-button-response","184","18920276","0.0-184.0","65b50f54fb1adf4ff37c753a","65b50f54fb1adf4ff37c753a_20240207","","","","5","5","836",""
"5439","0","html-button-response","185","18926228","0.0-185.0","65b50f54fb1adf4ff37c753a","65b50f54fb1adf4ff37c753a_20240207","","","","9","3","107",""
"16743","0","html-button-response","186","18943484","0.0-186.0","65b50f54fb1adf4ff37c753a","65b50f54fb1adf4ff37c753a_20240207","","","","4","5","994",""
"258760","0","html-button-response","187","19202758","0.0-187.0","65b50f54fb1adf4ff37c753a","65b50f54fb1adf4ff37c753a_20240207","","","","3","3","2038",""
"5088","0","html-button-response","188","19208348","0.0-188.0","65b50f54fb1adf4ff37c753a","65b50f54fb1adf4ff37c753a_20240207","","","","9","9","2081",""
"23079","0","html-button-response","189","19231932","0.0-189.0","65b50f54fb1adf4ff37c753a","65b50f54fb1adf4ff37c753a_20240207","","","","7","5","620",""
"237960","0","html-button-response","190","19470405","0.0-190.0","65b50f54fb1adf4ff37c753a","65b50f54fb1adf4ff37c753a_20240207","","","","5","5","1992",""
"7557","0","html-button-response","191","19478476","0.0-191.0","65b50f54fb1adf4ff37c753a","65b50f54fb1adf4ff37c753a_20240207","","","","8","3","1363",""
"7458","0","html-button-response","192","19486444","0.0-192.0","65b50f54fb1adf4ff37c753a","65b50f54fb1adf4ff37c753a_20240207","","","","4","8","847",""
"15140","0","html-button-response","193","19502093","0.0-193.0","65b50f54fb1adf4ff37c753a","65b50f54fb1adf4ff37c753a_20240207","","","","8","3","530",""
"7054","0","html-button-response","194","19509660","0.0-194.0","65b50f54fb1adf4ff37c753a","65b50f54fb1adf4ff37c753a_20240207","","","","8","3","404",""
"43262","0","html-button-response","195","19553437","0.0-195.0","65b50f54fb1adf4ff37c753a","65b50f54fb1adf4ff37c753a_20240207","","","","6","5","1799",""
"70968","0","html-button-response","196","19624908","0.0-196.0","65b50f54fb1adf4ff37c753a","65b50f54fb1adf4ff37c753a_20240207","","","","6","7","2146",""
"19745","0","html-button-response","197","19645156","0.0-197.0","65b50f54fb1adf4ff37c753a","65b50f54fb1adf4ff37c753a_20240207","","","","8","3","47",""
"682415","0","html-button-response","198","20328076","0.0-198.0","65b50f54fb1adf4ff37c753a","65b50f54fb1adf4ff37c753a_20240207","","","","7","3","1156",""
"21029","0","html-button-response","199","20349612","0.0-199.0","65b50f54fb1adf4ff37c753a","65b50f54fb1adf4ff37c753a_20240207","","","","9","9","1371",""
"11110","0","html-button-response","200","20361228","0.0-200.0","65b50f54fb1adf4ff37c753a","65b50f54fb1adf4ff37c753a_20240207","","","","6","4","1997",""
"162523","0","html-button-response","201","20524268","0.0-201.0","65b50f54fb1adf4ff37c753a","65b50f54fb1adf4ff37c753a_20240207","","","","7","3","457",""
"8674","0","html-button-response","202","20533453","0.0-202.0","65b50f54fb1adf4ff37c753a","65b50f54fb1adf4ff37c753a_20240207","","","","8","7","554",""
"7344","0","html-button-response","203","20541301","0.0-203.0","65b50f54fb1adf4ff37c753a","65b50f54fb1adf4ff37c753a_20240207","","","","9","8","1877",""
"7905","0","html-button-response","204","20549708","0.0-204.0","65b50f54fb1adf4ff37c753a","65b50f54fb1adf4ff37c753a_20240207","","","","5","3","425",""
"7056","0","html-button-response","205","20557269","0.0-205.0","65b50f54fb1adf4ff37c753a","65b50f54fb1adf4ff37c753a_20240207","","","","8","3","88",""
"21648","0","html-button-response","206","20579422","0.0-206.0","65b50f54fb1adf4ff37c753a","65b50f54fb1adf4ff37c753a_20240207","","","","7","5","1352",""
"12663","0","html-button-response","207","20592589","0.0-207.0","65b50f54fb1adf4ff37c753a","65b50f54fb1adf4ff37c753a_20240207","","","","8","2","1738",""
"28024","0","html-button-response","208","20621117","0.0-208.0","65b50f54fb1adf4ff37c753a","65b50f54fb1adf4ff37c753a_20240207","","","","4","7","1157",""
"49551","0","html-button-response","209","20671174","0.0-209.0","65b50f54fb1adf4ff37c753a","65b50f54fb1adf4ff37c753a_20240207","","","","7","2","286",""
"5661","0","html-button-response","210","20677342","0.0-210.0","65b50f54fb1adf4ff37c753a","65b50f54fb1adf4ff37c753a_20240207","","","","9","6","229",""
"5815","0","html-button-response","211","20683668","0.0-211.0","65b50f54fb1adf4ff37c753a","65b50f54fb1adf4ff37c753a_20240207","","","","9","9","1589",""
"4726","0","html-button-response","212","20688910","0.0-212.0","65b50f54fb1adf4ff37c753a","65b50f54fb1adf4ff37c753a_20240207","","","","9","9","1561",""
"232648","0","html-button-response","213","20922060","0.0-213.0","65b50f54fb1adf4ff37c753a","65b50f54fb1adf4ff37c753a_20240207","","","","8","2","1493",""
"8446","0","html-button-response","214","20931012","0.0-214.0","65b50f54fb1adf4ff37c753a","65b50f54fb1adf4ff37c753a_20240207","","","","8","8","1205",""
"327190","0","html-button-response","215","21258709","0.0-215.0","65b50f54fb1adf4ff37c753a","65b50f54fb1adf4ff37c753a_20240207","","","","6","5","1991",""
"7310","0","html-button-response","216","21266532","0.0-216.0","65b50f54fb1adf4ff37c753a","65b50f54fb1adf4ff37c753a_20240207","","","","8","9","2069",""
"3049","0","html-button-response","217","21270100","0.0-217.0","65b50f54fb1adf4ff37c753a","65b50f54fb1adf4ff37c753a_20240207","","","","5","5","1150",""
"7151","0","html-button-response","218","21277758","0.0-218.0","65b50f54fb1adf4ff37c753a","65b50f54fb1adf4ff37c753a_20240207","","","","6","2","1194",""
"9054","0","html-button-response","219","21287316","0.0-219.0","65b50f54fb1adf4ff37c753a","65b50f54fb1adf4ff37c753a_20240207","","","","5","4","831",""
"3926","0","html-button-response","220","21291748","0.0-220.0","65b50f54fb1adf4ff37c753a","65b50f54fb1adf4ff37c753a_20240207","","","","5","5","2193",""
"31911","0","html-button-response","221","21324164","0.0-221.0","65b50f54fb1adf4ff37c753a","65b50f54fb1adf4ff37c753a_20240207","","","","5","4","920",""
"6655","0","html-button-response","222","21331327","0.0-222.0","65b50f54fb1adf4ff37c753a","65b50f54fb1adf4ff37c753a_20240207","","","","9","4","197",""
"5443","0","html-button-response","223","21337284","0.0-223.0","65b50f54fb1adf4ff37c753a","65b50f54fb1adf4ff37c753a_20240207","","","","5","6","1653",""
"9959","0","html-button-response","224","21347748","0.0-224.0","65b50f54fb1adf4ff37c753a","65b50f54fb1adf4ff37c753a_20240207","","","","6","2","741",""
"1465","0","html-button-response","225","21349724","0.0-225.0","65b50f54fb1adf4ff37c753a","65b50f54fb1adf4ff37c753a_20240207","","","Thank you. You have reached the end. 
                       <br>Click the button below to reveal your compensation.
                        <br><br>","","","","141,1103,1334,1419,133,419,2,2112,807,1856,718,1108,475,1153,573,576,962,117,1718,934,458,1102,944,438,641,1337,2075,1609,279,1584,1895,780,1210,1749,914,902,1304,156,1655,1494,1531,582,599,1615,1823,1256,775,1590,1312,1367,892,929,1409,1101,2055,818,1567,1283,1505,2020,409,1415,1773,139,1550,1208,1744,1961,1374,961,1900,1588,503,844,354,2166,1613,244,1993,374,825,1320,1987,1638,1946,224,196,1275,1826,1411,362,2037,417,2064,715,386,356,1227,1462,1288,2119,824,1012,1325,2012,1608,1273,1296,1255,1915,1189,2085,2147,1581,746,508,1622,1022,2164,1453,1692,330,39,1543,1131,1475,957,1473,1297,1265,1406,518,799,809,1261,1104,974,93,2178,470,590,242,593,680,2127,705,1114,1885,1291,151,303,1883,1954,660,1842,1664,1299,100,116,395,806,105,1087,49,2199,11,1302,1537,541,1105,210,1027,557,22,2017,785,82,291,435,836,107,994,2038,2081,620,1992,1363,847,530,404,1799,2146,47,1156,1371,1997,457,554,1877,425,88,1352,1738,1157,286,229,1589,1561,1493,1205,1991,2069,1150,1194,831,2193,920,197,1653,741"
