"rt","response","trial_type","trial_index","time_elapsed","internal_node_id","part_ID","ID_DATE","screen_id","understand_correct","stimulus","arousal","valence","img_id","tested_trial_idx"
"6313","0","html-button-response","0","6315","0.0-0.0","63052f20afc39e87110eb83e","63052f20afc39e87110eb83e_20240207","","","","","","",""
"6045","[object Object]","survey-html-form","1","12864","0.0-1.0","63052f20afc39e87110eb83e","63052f20afc39e87110eb83e_20240207","prolific_id_page","","","","","",""
"225041","0","html-button-response","2","237907","0.0-2.0","63052f20afc39e87110eb83e","63052f20afc39e87110eb83e_20240207","","","","","","",""
"12352","0","html-button-response","3","250761","0.0-3.0-0.0","63052f20afc39e87110eb83e","63052f20afc39e87110eb83e_20240207","","false","","","","",""
"104583","0","html-button-response","4","358032","0.0-3.1-0.1","63052f20afc39e87110eb83e","63052f20afc39e87110eb83e_20240207","","true","","","","",""
"3949","0","html-button-response","5","362483","0.0-4.0","63052f20afc39e87110eb83e","63052f20afc39e87110eb83e_20240207","","","
<div>
Great! You will now go on to rate the faces.
<br><br>
</div>
","","","",""
"19325","0","html-button-response","6","382315","0.0-5.0","63052f20afc39e87110eb83e","63052f20afc39e87110eb83e_20240207","","","","9","5","32",""
"30083","0","html-button-response","7","412906","0.0-6.0","63052f20afc39e87110eb83e","63052f20afc39e87110eb83e_20240207","","","","7","6","709",""
"34334","0","html-button-response","8","447742","0.0-7.0","63052f20afc39e87110eb83e","63052f20afc39e87110eb83e_20240207","","","","7","5","1047",""
"12752","0","html-button-response","9","460998","0.0-8.0","63052f20afc39e87110eb83e","63052f20afc39e87110eb83e_20240207","","","","9","9","1224",""
"13465","0","html-button-response","10","474965","0.0-9.0","63052f20afc39e87110eb83e","63052f20afc39e87110eb83e_20240207","","","","5","4","823",""
"18592","0","html-button-response","11","494058","0.0-10.0","63052f20afc39e87110eb83e","63052f20afc39e87110eb83e_20240207","","","","4","2","271",""
"12736","0","html-button-response","12","507295","0.0-11.0","63052f20afc39e87110eb83e","63052f20afc39e87110eb83e_20240207","","","","3","1","1948",""
"13022","0","html-button-response","13","520821","0.0-12.0","63052f20afc39e87110eb83e","63052f20afc39e87110eb83e_20240207","","","","2","1","1232",""
"16399","0","html-button-response","14","537735","0.0-13.0","63052f20afc39e87110eb83e","63052f20afc39e87110eb83e_20240207","","","","4","2","416",""
"13863","0","html-button-response","15","552101","0.0-14.0","63052f20afc39e87110eb83e","63052f20afc39e87110eb83e_20240207","","","","4","1","1196",""
"4128","0","html-button-response","16","556737","0.0-15.0","63052f20afc39e87110eb83e","63052f20afc39e87110eb83e_20240207","","","","5","5","821",""
"12621","0","html-button-response","17","569861","0.0-16.0","63052f20afc39e87110eb83e","63052f20afc39e87110eb83e_20240207","","","","7","5","2147",""
"12532","0","html-button-response","18","582908","0.0-17.0","63052f20afc39e87110eb83e","63052f20afc39e87110eb83e_20240207","","","","3","3","2132",""
"6709","0","html-button-response","19","590120","0.0-18.0","63052f20afc39e87110eb83e","63052f20afc39e87110eb83e_20240207","","","","5","1","363",""
"44139","0","html-button-response","20","634764","0.0-19.0","63052f20afc39e87110eb83e","63052f20afc39e87110eb83e_20240207","","","","4","3","104",""
"14189","0","html-button-response","21","649455","0.0-20.0","63052f20afc39e87110eb83e","63052f20afc39e87110eb83e_20240207","","","","2","2","1767",""
"15022","0","html-button-response","22","664981","0.0-21.0","63052f20afc39e87110eb83e","63052f20afc39e87110eb83e_20240207","","","","3","3","2051",""
"13361","0","html-button-response","23","678845","0.0-22.0","63052f20afc39e87110eb83e","63052f20afc39e87110eb83e_20240207","","","","8","7","735",""
"5259","0","html-button-response","24","684615","0.0-23.0","63052f20afc39e87110eb83e","63052f20afc39e87110eb83e_20240207","","","","8","7","385",""
"4252","0","html-button-response","25","689374","0.0-24.0","63052f20afc39e87110eb83e","63052f20afc39e87110eb83e_20240207","","","","5","5","1474",""
"38276","0","html-button-response","26","728152","0.0-25.0","63052f20afc39e87110eb83e","63052f20afc39e87110eb83e_20240207","","","","3","2","1105",""
"13602","0","html-button-response","27","742263","0.0-26.0","63052f20afc39e87110eb83e","63052f20afc39e87110eb83e_20240207","","","","5","3","272",""
"26157","0","html-button-response","28","768926","0.0-27.0","63052f20afc39e87110eb83e","63052f20afc39e87110eb83e_20240207","","","","9","7","343",""
"8459","0","html-button-response","29","777899","0.0-28.0","63052f20afc39e87110eb83e","63052f20afc39e87110eb83e_20240207","","","","9","9","874",""
"5334","0","html-button-response","30","783747","0.0-29.0","63052f20afc39e87110eb83e","63052f20afc39e87110eb83e_20240207","","","","5","5","1851",""
"18100","0","html-button-response","31","802351","0.0-30.0","63052f20afc39e87110eb83e","63052f20afc39e87110eb83e_20240207","","","","7","7","541",""
"4030","0","html-button-response","32","806887","0.0-31.0","63052f20afc39e87110eb83e","63052f20afc39e87110eb83e_20240207","","","","5","5","1145",""
"9941","0","html-button-response","33","817333","0.0-32.0","63052f20afc39e87110eb83e","63052f20afc39e87110eb83e_20240207","","","","5","2","853",""
"14952","0","html-button-response","34","832791","0.0-33.0","63052f20afc39e87110eb83e","63052f20afc39e87110eb83e_20240207","","","","6","6","614",""
"16070","0","html-button-response","35","849364","0.0-34.0","63052f20afc39e87110eb83e","63052f20afc39e87110eb83e_20240207","","","","3","3","90",""
"19710","0","html-button-response","36","869583","0.0-35.0","63052f20afc39e87110eb83e","63052f20afc39e87110eb83e_20240207","","","","8","4","226",""
"23342","0","html-button-response","37","893428","0.0-36.0","63052f20afc39e87110eb83e","63052f20afc39e87110eb83e_20240207","","","","7","9","1744",""
"14202","0","html-button-response","38","908142","0.0-37.0","63052f20afc39e87110eb83e","63052f20afc39e87110eb83e_20240207","","","","5","1","155",""
"12545","0","html-button-response","39","921195","0.0-38.0","63052f20afc39e87110eb83e","63052f20afc39e87110eb83e_20240207","","","","3","2","1963",""
"12634","0","html-button-response","40","934338","0.0-39.0","63052f20afc39e87110eb83e","63052f20afc39e87110eb83e_20240207","","","","7","8","1251",""
"5415","0","html-button-response","41","940264","0.0-40.0","63052f20afc39e87110eb83e","63052f20afc39e87110eb83e_20240207","","","","5","5","1303",""
"7677","0","html-button-response","42","948453","0.0-41.0","63052f20afc39e87110eb83e","63052f20afc39e87110eb83e_20240207","","","","5","5","2017",""
"11859","0","html-button-response","43","960818","0.0-42.0","63052f20afc39e87110eb83e","63052f20afc39e87110eb83e_20240207","","","","9","5","43",""
"25735","0","html-button-response","44","987062","0.0-43.0","63052f20afc39e87110eb83e","63052f20afc39e87110eb83e_20240207","","","","7","3","515",""
"11072","0","html-button-response","45","998651","0.0-44.0","63052f20afc39e87110eb83e","63052f20afc39e87110eb83e_20240207","","","","4","5","811",""
"3967","0","html-button-response","46","1003120","0.0-45.0","63052f20afc39e87110eb83e","63052f20afc39e87110eb83e_20240207","","","","5","5","1827",""
"24338","0","html-button-response","47","1027974","0.0-46.0","63052f20afc39e87110eb83e","63052f20afc39e87110eb83e_20240207","","","","4","3","670",""
"5398","0","html-button-response","48","1033876","0.0-47.0","63052f20afc39e87110eb83e","63052f20afc39e87110eb83e_20240207","","","","5","5","967",""
"14796","0","html-button-response","49","1049184","0.0-48.0","63052f20afc39e87110eb83e","63052f20afc39e87110eb83e_20240207","","","","8","9","860",""
"19099","0","html-button-response","50","1068790","0.0-49.0","63052f20afc39e87110eb83e","63052f20afc39e87110eb83e_20240207","","","","5","3","2014",""
"10783","0","html-button-response","51","1080082","0.0-50.0","63052f20afc39e87110eb83e","63052f20afc39e87110eb83e_20240207","","","","3","2","2105",""
"10382","0","html-button-response","52","1090969","0.0-51.0","63052f20afc39e87110eb83e","63052f20afc39e87110eb83e_20240207","","","","8","3","87",""
"9948","0","html-button-response","53","1101428","0.0-52.0","63052f20afc39e87110eb83e","63052f20afc39e87110eb83e_20240207","","","","5","4","655",""
"18612","0","html-button-response","54","1120551","0.0-53.0","63052f20afc39e87110eb83e","63052f20afc39e87110eb83e_20240207","","","","7","9","1396",""
"13373","0","html-button-response","55","1134426","0.0-54.0","63052f20afc39e87110eb83e","63052f20afc39e87110eb83e_20240207","","","","5","6","1970",""
"12341","0","html-button-response","56","1147272","0.0-55.0","63052f20afc39e87110eb83e","63052f20afc39e87110eb83e_20240207","","","","8","8","887",""
"7907","0","html-button-response","57","1155683","0.0-56.0","63052f20afc39e87110eb83e","63052f20afc39e87110eb83e_20240207","","","","5","5","1799",""
"20272","0","html-button-response","58","1176467","0.0-57.0","63052f20afc39e87110eb83e","63052f20afc39e87110eb83e_20240207","","","","5","7","1086",""
"39104","0","html-button-response","59","1216075","0.0-58.0","63052f20afc39e87110eb83e","63052f20afc39e87110eb83e_20240207","","","","7","8","1904",""
"14231","0","html-button-response","60","1230811","0.0-59.0","63052f20afc39e87110eb83e","63052f20afc39e87110eb83e_20240207","","","","8","3","279",""
"17626","0","html-button-response","61","1248939","0.0-60.0","63052f20afc39e87110eb83e","63052f20afc39e87110eb83e_20240207","","","","2","3","2065",""
"9329","0","html-button-response","62","1258776","0.0-61.0","63052f20afc39e87110eb83e","63052f20afc39e87110eb83e_20240207","","","","5","3","464",""
"3912","0","html-button-response","63","1263203","0.0-62.0","63052f20afc39e87110eb83e","63052f20afc39e87110eb83e_20240207","","","","5","5","1641",""
"7250","0","html-button-response","64","1270956","0.0-63.0","63052f20afc39e87110eb83e","63052f20afc39e87110eb83e_20240207","","","","5","1","1376",""
"9728","0","html-button-response","65","1281187","0.0-64.0","63052f20afc39e87110eb83e","63052f20afc39e87110eb83e_20240207","","","","7","9","1185",""
"24365","0","html-button-response","66","1306053","0.0-65.0","63052f20afc39e87110eb83e","63052f20afc39e87110eb83e_20240207","","","","7","9","1018",""
"9404","0","html-button-response","67","1315959","0.0-66.0","63052f20afc39e87110eb83e","63052f20afc39e87110eb83e_20240207","","","","5","9","1879",""
"14425","0","html-button-response","68","1330887","0.0-67.0","63052f20afc39e87110eb83e","63052f20afc39e87110eb83e_20240207","","","","7","7","1082",""
"24562","0","html-button-response","69","1355954","0.0-68.0","63052f20afc39e87110eb83e","63052f20afc39e87110eb83e_20240207","","","","3","2","1090",""
"17435","0","html-button-response","70","1373901","0.0-69.0","63052f20afc39e87110eb83e","63052f20afc39e87110eb83e_20240207","","","","5","8","1540",""
"7307","0","html-button-response","71","1381710","0.0-70.0","63052f20afc39e87110eb83e","63052f20afc39e87110eb83e_20240207","","","","6","8","1577",""
"7835","0","html-button-response","72","1390053","0.0-71.0","63052f20afc39e87110eb83e","63052f20afc39e87110eb83e_20240207","","","","8","7","901",""
"13470","0","html-button-response","73","1404026","0.0-72.0","63052f20afc39e87110eb83e","63052f20afc39e87110eb83e_20240207","","","","7","6","1750",""
"7567","0","html-button-response","74","1412095","0.0-73.0","63052f20afc39e87110eb83e","63052f20afc39e87110eb83e_20240207","","","","5","4","957",""
"50592","0","html-button-response","75","1463189","0.0-74.0","63052f20afc39e87110eb83e","63052f20afc39e87110eb83e_20240207","","","","7","7","1938",""
"50271","0","html-button-response","76","1513971","0.0-75.0","63052f20afc39e87110eb83e","63052f20afc39e87110eb83e_20240207","","","","3","6","1243",""
"5796","0","html-button-response","77","1520270","0.0-76.0","63052f20afc39e87110eb83e","63052f20afc39e87110eb83e_20240207","","","","9","5","248",""
"17398","0","html-button-response","78","1538172","0.0-77.0","63052f20afc39e87110eb83e","63052f20afc39e87110eb83e_20240207","","","","5","8","1527",""
"12572","0","html-button-response","79","1551245","0.0-78.0","63052f20afc39e87110eb83e","63052f20afc39e87110eb83e_20240207","","","","5","4","463",""
"15577","0","html-button-response","80","1567326","0.0-79.0","63052f20afc39e87110eb83e","63052f20afc39e87110eb83e_20240207","","","","4","1","1260",""
"16090","0","html-button-response","81","1583919","0.0-80.0","63052f20afc39e87110eb83e","63052f20afc39e87110eb83e_20240207","","","","5","6","1614",""
"14253","0","html-button-response","82","1598676","0.0-81.0","63052f20afc39e87110eb83e","63052f20afc39e87110eb83e_20240207","","","","5","3","453",""
"26059","0","html-button-response","83","1625241","0.0-82.0","63052f20afc39e87110eb83e","63052f20afc39e87110eb83e_20240207","","","","7","8","1044",""
"6290","0","html-button-response","84","1632036","0.0-83.0","63052f20afc39e87110eb83e","63052f20afc39e87110eb83e_20240207","","","","9","5","175",""
"8443","0","html-button-response","85","1640987","0.0-84.0","63052f20afc39e87110eb83e","63052f20afc39e87110eb83e_20240207","","","","7","8","1236",""
"3363","0","html-button-response","86","1644854","0.0-85.0","63052f20afc39e87110eb83e","63052f20afc39e87110eb83e_20240207","","","","5","5","963",""
"6143","0","html-button-response","87","1651498","0.0-86.0","63052f20afc39e87110eb83e","63052f20afc39e87110eb83e_20240207","","","","5","5","1135",""
"5726","0","html-button-response","88","1657730","0.0-87.0","63052f20afc39e87110eb83e","63052f20afc39e87110eb83e_20240207","","","","5","4","1335",""
"9365","0","html-button-response","89","1667603","0.0-88.0","63052f20afc39e87110eb83e","63052f20afc39e87110eb83e_20240207","","","","4","6","1931",""
"15384","0","html-button-response","90","1683503","0.0-89.0","63052f20afc39e87110eb83e","63052f20afc39e87110eb83e_20240207","","","","3","2","1052",""
"21747","0","html-button-response","91","1705756","0.0-90.0","63052f20afc39e87110eb83e","63052f20afc39e87110eb83e_20240207","","","","1","5","1794",""
"6497","0","html-button-response","92","1712756","0.0-91.0","63052f20afc39e87110eb83e","63052f20afc39e87110eb83e_20240207","","","","5","5","1269",""
"9506","0","html-button-response","93","1722765","0.0-92.0","63052f20afc39e87110eb83e","63052f20afc39e87110eb83e_20240207","","","","2","5","1611",""
"3676","0","html-button-response","94","1726955","0.0-93.0","63052f20afc39e87110eb83e","63052f20afc39e87110eb83e_20240207","","","","2","5","1455",""
"23018","0","html-button-response","95","1750475","0.0-94.0","63052f20afc39e87110eb83e","63052f20afc39e87110eb83e_20240207","","","","7","8","1032",""
"12007","0","html-button-response","96","1762983","0.0-95.0","63052f20afc39e87110eb83e","63052f20afc39e87110eb83e_20240207","","","","9","5","222",""
"9794","0","html-button-response","97","1773281","0.0-96.0","63052f20afc39e87110eb83e","63052f20afc39e87110eb83e_20240207","","","","3","4","1103",""
"7550","0","html-button-response","98","1781335","0.0-97.0","63052f20afc39e87110eb83e","63052f20afc39e87110eb83e_20240207","","","","5","6","1978",""
"12521","0","html-button-response","99","1794357","0.0-98.0","63052f20afc39e87110eb83e","63052f20afc39e87110eb83e_20240207","","","","8","5","445",""
"6031","0","html-button-response","100","1800904","0.0-99.0","63052f20afc39e87110eb83e","63052f20afc39e87110eb83e_20240207","","","","5","9","2057",""
"13537","0","html-button-response","101","1814945","0.0-100.0","63052f20afc39e87110eb83e","63052f20afc39e87110eb83e_20240207","","","","4","1","1374",""
"12003","0","html-button-response","102","1827449","0.0-101.0","63052f20afc39e87110eb83e","63052f20afc39e87110eb83e_20240207","","","","8","9","679",""
"11702","0","html-button-response","103","1839667","0.0-102.0","63052f20afc39e87110eb83e","63052f20afc39e87110eb83e_20240207","","","","5","2","698",""
"2834","0","html-button-response","104","1843014","0.0-103.0","63052f20afc39e87110eb83e","63052f20afc39e87110eb83e_20240207","","","","5","5","1471",""
"5055","0","html-button-response","105","1848585","0.0-104.0","63052f20afc39e87110eb83e","63052f20afc39e87110eb83e_20240207","","","","8","5","92",""
"8301","0","html-button-response","106","1857395","0.0-105.0","63052f20afc39e87110eb83e","63052f20afc39e87110eb83e_20240207","","","","5","5","1670",""
"4364","0","html-button-response","107","1862263","0.0-106.0","63052f20afc39e87110eb83e","63052f20afc39e87110eb83e_20240207","","","","5","4","1177",""
"6819","0","html-button-response","108","1869588","0.0-107.0","63052f20afc39e87110eb83e","63052f20afc39e87110eb83e_20240207","","","","8","5","420",""
"7785","0","html-button-response","109","1877875","0.0-108.0","63052f20afc39e87110eb83e","63052f20afc39e87110eb83e_20240207","","","","4","5","1832",""
"9263","0","html-button-response","110","1887643","0.0-109.0","63052f20afc39e87110eb83e","63052f20afc39e87110eb83e_20240207","","","","5","5","1681",""
"18939","0","html-button-response","111","1907089","0.0-110.0","63052f20afc39e87110eb83e","63052f20afc39e87110eb83e_20240207","","","","5","6","1472",""
"7069","0","html-button-response","112","1914668","0.0-111.0","63052f20afc39e87110eb83e","63052f20afc39e87110eb83e_20240207","","","","1","4","1910",""
"11461","0","html-button-response","113","1926634","0.0-112.0","63052f20afc39e87110eb83e","63052f20afc39e87110eb83e_20240207","","","","5","5","1816",""
"7758","0","html-button-response","114","1934899","0.0-113.0","63052f20afc39e87110eb83e","63052f20afc39e87110eb83e_20240207","","","","7","9","1420",""
"9382","0","html-button-response","115","1944794","0.0-114.0","63052f20afc39e87110eb83e","63052f20afc39e87110eb83e_20240207","","","","7","4","628",""
"7375","0","html-button-response","116","1952674","0.0-115.0","63052f20afc39e87110eb83e","63052f20afc39e87110eb83e_20240207","","","","5","6","1617",""
"9923","0","html-button-response","117","1963100","0.0-116.0","63052f20afc39e87110eb83e","63052f20afc39e87110eb83e_20240207","","","","5","8","1916",""
"9688","0","html-button-response","118","1973295","0.0-117.0","63052f20afc39e87110eb83e","63052f20afc39e87110eb83e_20240207","","","","5","2","1156",""
"4021","0","html-button-response","119","1977825","0.0-118.0","63052f20afc39e87110eb83e","63052f20afc39e87110eb83e_20240207","","","","5","5","1484",""
"19926","0","html-button-response","120","1998254","0.0-119.0","63052f20afc39e87110eb83e","63052f20afc39e87110eb83e_20240207","","","","3","7","1568",""
"5875","0","html-button-response","121","2004636","0.0-120.0","63052f20afc39e87110eb83e","63052f20afc39e87110eb83e_20240207","","","","5","5","1657",""
"7133","0","html-button-response","122","2012274","0.0-121.0","63052f20afc39e87110eb83e","63052f20afc39e87110eb83e_20240207","","","","6","9","1356",""
"8341","0","html-button-response","123","2021124","0.0-122.0","63052f20afc39e87110eb83e","63052f20afc39e87110eb83e_20240207","","","","8","7","344",""
"13933","0","html-button-response","124","2035562","0.0-123.0","63052f20afc39e87110eb83e","63052f20afc39e87110eb83e_20240207","","","","4","2","545",""
"9204","0","html-button-response","125","2045277","0.0-124.0","63052f20afc39e87110eb83e","63052f20afc39e87110eb83e_20240207","","","","5","9","1697",""
"4318","0","html-button-response","126","2050098","0.0-125.0","63052f20afc39e87110eb83e","63052f20afc39e87110eb83e_20240207","","","","5","5","1318",""
"7293","0","html-button-response","127","2057897","0.0-126.0","63052f20afc39e87110eb83e","63052f20afc39e87110eb83e_20240207","","","","7","7","682",""
"10864","0","html-button-response","128","2069273","0.0-127.0","63052f20afc39e87110eb83e","63052f20afc39e87110eb83e_20240207","","","","5","2","558",""
"6850","0","html-button-response","129","2076639","0.0-128.0","63052f20afc39e87110eb83e","63052f20afc39e87110eb83e_20240207","","","","3","5","1311",""
"7396","0","html-button-response","130","2084537","0.0-129.0","63052f20afc39e87110eb83e","63052f20afc39e87110eb83e_20240207","","","","5","7","1774",""
"5012","0","html-button-response","131","2090066","0.0-130.0","63052f20afc39e87110eb83e","63052f20afc39e87110eb83e_20240207","","","","5","9","1900",""
"10770","0","html-button-response","132","2101343","0.0-131.0","63052f20afc39e87110eb83e","63052f20afc39e87110eb83e_20240207","","","","4","4","1975",""
"8115","0","html-button-response","133","2109960","0.0-132.0","63052f20afc39e87110eb83e","63052f20afc39e87110eb83e_20240207","","","","8","7","718",""
"5902","0","html-button-response","134","2116366","0.0-133.0","63052f20afc39e87110eb83e","63052f20afc39e87110eb83e_20240207","","","","5","5","1824",""
"17113","0","html-button-response","135","2133994","0.0-134.0","63052f20afc39e87110eb83e","63052f20afc39e87110eb83e_20240207","","","","5","2","894",""
"3994","0","html-button-response","136","2138502","0.0-135.0","63052f20afc39e87110eb83e","63052f20afc39e87110eb83e_20240207","","","","5","1","1362",""
"15052","0","html-button-response","137","2154057","0.0-136.0","63052f20afc39e87110eb83e","63052f20afc39e87110eb83e_20240207","","","","6","4","450",""
"6953","0","html-button-response","138","2161521","0.0-137.0","63052f20afc39e87110eb83e","63052f20afc39e87110eb83e_20240207","","","","5","5","1992",""
"18949","0","html-button-response","139","2180973","0.0-138.0","63052f20afc39e87110eb83e","63052f20afc39e87110eb83e_20240207","","","","6","5","989",""
"9805","0","html-button-response","140","2191281","0.0-139.0","63052f20afc39e87110eb83e","63052f20afc39e87110eb83e_20240207","","","","8","7","510",""
"13428","0","html-button-response","141","2205213","0.0-140.0","63052f20afc39e87110eb83e","63052f20afc39e87110eb83e_20240207","","","","5","2","868",""
"8425","0","html-button-response","142","2214147","0.0-141.0","63052f20afc39e87110eb83e","63052f20afc39e87110eb83e_20240207","","","","9","7","170",""
"12688","0","html-button-response","143","2227341","0.0-142.0","63052f20afc39e87110eb83e","63052f20afc39e87110eb83e_20240207","","","","7","6","927",""
"9743","0","html-button-response","144","2237599","0.0-143.0","63052f20afc39e87110eb83e","63052f20afc39e87110eb83e_20240207","","","","4","4","2001",""
"42063","0","html-button-response","145","2280166","0.0-144.0","63052f20afc39e87110eb83e","63052f20afc39e87110eb83e_20240207","","","","3","6","1075",""
"19013","0","html-button-response","146","2299682","0.0-145.0","63052f20afc39e87110eb83e","63052f20afc39e87110eb83e_20240207","","","","8","9","1016",""
"10012","0","html-button-response","147","2310195","0.0-146.0","63052f20afc39e87110eb83e","63052f20afc39e87110eb83e_20240207","","","","8","5","178",""
"18301","0","html-button-response","148","2328997","0.0-147.0","63052f20afc39e87110eb83e","63052f20afc39e87110eb83e_20240207","","","","3","4","1807",""
"11865","0","html-button-response","149","2341370","0.0-148.0","63052f20afc39e87110eb83e","63052f20afc39e87110eb83e_20240207","","","","5","1","855",""
"3002","0","html-button-response","150","2344877","0.0-149.0","63052f20afc39e87110eb83e","63052f20afc39e87110eb83e_20240207","","","","5","5","2186",""
"4007","0","html-button-response","151","2349398","0.0-150.0","63052f20afc39e87110eb83e","63052f20afc39e87110eb83e_20240207","","","","5","6","1628",""
"16189","0","html-button-response","152","2366088","0.0-151.0","63052f20afc39e87110eb83e","63052f20afc39e87110eb83e_20240207","","","","2","2","1560",""
"7239","0","html-button-response","153","2373833","0.0-152.0","63052f20afc39e87110eb83e","63052f20afc39e87110eb83e_20240207","","","","3","4","1428",""
"10398","0","html-button-response","154","2384734","0.0-153.0","63052f20afc39e87110eb83e","63052f20afc39e87110eb83e_20240207","","","","8","8","863",""
"13678","0","html-button-response","155","2398914","0.0-154.0","63052f20afc39e87110eb83e","63052f20afc39e87110eb83e_20240207","","","","8","7","898",""
"17213","0","html-button-response","156","2416636","0.0-155.0","63052f20afc39e87110eb83e","63052f20afc39e87110eb83e_20240207","","","","6","9","1574",""
"22888","0","html-button-response","157","2440031","0.0-156.0","63052f20afc39e87110eb83e","63052f20afc39e87110eb83e_20240207","","","","7","4","75",""
"6543","0","html-button-response","158","2447083","0.0-157.0","63052f20afc39e87110eb83e","63052f20afc39e87110eb83e_20240207","","","","5","4","994",""
"5911","0","html-button-response","159","2453499","0.0-158.0","63052f20afc39e87110eb83e","63052f20afc39e87110eb83e_20240207","","","","3","5","1595",""
"7700","0","html-button-response","160","2461710","0.0-159.0","63052f20afc39e87110eb83e","63052f20afc39e87110eb83e_20240207","","","","8","7","680",""
"10808","0","html-button-response","161","2473024","0.0-160.0","63052f20afc39e87110eb83e","63052f20afc39e87110eb83e_20240207","","","","6","9","2082",""
"10420","0","html-button-response","162","2483956","0.0-161.0","63052f20afc39e87110eb83e","63052f20afc39e87110eb83e_20240207","","","","5","6","1268",""
"13288","0","html-button-response","163","2497746","0.0-162.0","63052f20afc39e87110eb83e","63052f20afc39e87110eb83e_20240207","","","","7","4","652",""
"6939","0","html-button-response","164","2505190","0.0-163.0","63052f20afc39e87110eb83e","63052f20afc39e87110eb83e_20240207","","","","7","5","638",""
"7111","0","html-button-response","165","2512816","0.0-164.0","63052f20afc39e87110eb83e","63052f20afc39e87110eb83e_20240207","","","","1","5","728",""
"11189","0","html-button-response","166","2524512","0.0-165.0","63052f20afc39e87110eb83e","63052f20afc39e87110eb83e_20240207","","","","1","3","936",""
"2645","0","html-button-response","167","2527669","0.0-166.0","63052f20afc39e87110eb83e","63052f20afc39e87110eb83e_20240207","","","","5","5","2020",""
"13130","0","html-button-response","168","2541311","0.0-167.0","63052f20afc39e87110eb83e","63052f20afc39e87110eb83e_20240207","","","","7","5","664",""
"11161","0","html-button-response","169","2552980","0.0-168.0","63052f20afc39e87110eb83e","63052f20afc39e87110eb83e_20240207","","","","8","6","379",""
"6680","0","html-button-response","170","2560173","0.0-169.0","63052f20afc39e87110eb83e","63052f20afc39e87110eb83e_20240207","","","","7","9","1045",""
"17980","0","html-button-response","171","2578669","0.0-170.0","63052f20afc39e87110eb83e","63052f20afc39e87110eb83e_20240207","","","","8","5","11",""
"3643","0","html-button-response","172","2582825","0.0-171.0","63052f20afc39e87110eb83e","63052f20afc39e87110eb83e_20240207","","","","5","5","2023",""
"4627","0","html-button-response","173","2587968","0.0-172.0","63052f20afc39e87110eb83e","63052f20afc39e87110eb83e_20240207","","","","5","9","1536",""
"8252","0","html-button-response","174","2596732","0.0-173.0","63052f20afc39e87110eb83e","63052f20afc39e87110eb83e_20240207","","","","5","3","830",""
"13654","0","html-button-response","175","2610891","0.0-174.0","63052f20afc39e87110eb83e","63052f20afc39e87110eb83e_20240207","","","","7","3","269",""
"15977","0","html-button-response","176","2627373","0.0-175.0","63052f20afc39e87110eb83e","63052f20afc39e87110eb83e_20240207","","","","8","5","199",""
"3534","0","html-button-response","177","2631411","0.0-176.0","63052f20afc39e87110eb83e","63052f20afc39e87110eb83e_20240207","","","","9","5","200",""
"12428","0","html-button-response","178","2644342","0.0-177.0","63052f20afc39e87110eb83e","63052f20afc39e87110eb83e_20240207","","","","3","4","908",""
"5763","0","html-button-response","179","2650612","0.0-178.0","63052f20afc39e87110eb83e","63052f20afc39e87110eb83e_20240207","","","","5","6","1446",""
"14386","0","html-button-response","180","2665508","0.0-179.0","63052f20afc39e87110eb83e","63052f20afc39e87110eb83e_20240207","","","","7","5","205",""
"10859","0","html-button-response","181","2676870","0.0-180.0","63052f20afc39e87110eb83e","63052f20afc39e87110eb83e_20240207","","","","4","7","1087",""
"8826","0","html-button-response","182","2686209","0.0-181.0","63052f20afc39e87110eb83e","63052f20afc39e87110eb83e_20240207","","","","5","5","2187",""
"8525","0","html-button-response","183","2695248","0.0-182.0","63052f20afc39e87110eb83e","63052f20afc39e87110eb83e_20240207","","","","5","5","954",""
"9053","0","html-button-response","184","2704806","0.0-183.0","63052f20afc39e87110eb83e","63052f20afc39e87110eb83e_20240207","","","","5","3","388",""
"9961","0","html-button-response","185","2715283","0.0-184.0","63052f20afc39e87110eb83e","63052f20afc39e87110eb83e_20240207","","","","7","6","604",""
"11585","0","html-button-response","186","2727383","0.0-185.0","63052f20afc39e87110eb83e","63052f20afc39e87110eb83e_20240207","","","","5","3","673",""
"8041","0","html-button-response","187","2735935","0.0-186.0","63052f20afc39e87110eb83e","63052f20afc39e87110eb83e_20240207","","","","7","9","1028",""
"11692","0","html-button-response","188","2748137","0.0-187.0","63052f20afc39e87110eb83e","63052f20afc39e87110eb83e_20240207","","","","5","5","1848",""
"20638","0","html-button-response","189","2769281","0.0-188.0","63052f20afc39e87110eb83e","63052f20afc39e87110eb83e_20240207","","","","4","3","961",""
"7182","0","html-button-response","190","2776966","0.0-189.0","63052f20afc39e87110eb83e","63052f20afc39e87110eb83e_20240207","","","","7","6","768",""
"4485","0","html-button-response","191","2781965","0.0-190.0","63052f20afc39e87110eb83e","63052f20afc39e87110eb83e_20240207","","","","5","5","1125",""
"8867","0","html-button-response","192","2791341","0.0-191.0","63052f20afc39e87110eb83e","63052f20afc39e87110eb83e_20240207","","","","5","4","1160",""
"6933","0","html-button-response","193","2798789","0.0-192.0","63052f20afc39e87110eb83e","63052f20afc39e87110eb83e_20240207","","","","5","2","128",""
"8571","0","html-button-response","194","2807873","0.0-193.0","63052f20afc39e87110eb83e","63052f20afc39e87110eb83e_20240207","","","","5","8","1899",""
"8139","0","html-button-response","195","2816524","0.0-194.0","63052f20afc39e87110eb83e","63052f20afc39e87110eb83e_20240207","","","","3","5","1299",""
"5082","0","html-button-response","196","2822122","0.0-195.0","63052f20afc39e87110eb83e","63052f20afc39e87110eb83e_20240207","","","","5","5","1171",""
"6842","0","html-button-response","197","2829473","0.0-196.0","63052f20afc39e87110eb83e","63052f20afc39e87110eb83e_20240207","","","","5","7","1939",""
"5759","0","html-button-response","198","2835736","0.0-197.0","63052f20afc39e87110eb83e","63052f20afc39e87110eb83e_20240207","","","","1","5","2040",""
"6676","0","html-button-response","199","2842928","0.0-198.0","63052f20afc39e87110eb83e","63052f20afc39e87110eb83e_20240207","","","","5","5","1999",""
"10988","0","html-button-response","200","2854418","0.0-199.0","63052f20afc39e87110eb83e","63052f20afc39e87110eb83e_20240207","","","","5","4","1508",""
"7824","0","html-button-response","201","2862745","0.0-200.0","63052f20afc39e87110eb83e","63052f20afc39e87110eb83e_20240207","","","","5","3","259",""
"9492","0","html-button-response","202","2872739","0.0-201.0","63052f20afc39e87110eb83e","63052f20afc39e87110eb83e_20240207","","","","9","6","704",""
"6045","0","html-button-response","203","2879295","0.0-202.0","63052f20afc39e87110eb83e","63052f20afc39e87110eb83e_20240207","","","","8","5","6",""
"5217","0","html-button-response","204","2885027","0.0-203.0","63052f20afc39e87110eb83e","63052f20afc39e87110eb83e_20240207","","","","5","5","1800",""
"4904","0","html-button-response","205","2890437","0.0-204.0","63052f20afc39e87110eb83e","63052f20afc39e87110eb83e_20240207","","","","5","5","2185",""
"16958","0","html-button-response","206","2907900","0.0-205.0","63052f20afc39e87110eb83e","63052f20afc39e87110eb83e_20240207","","","","7","9","1213",""
"17098","0","html-button-response","207","2925506","0.0-206.0","63052f20afc39e87110eb83e","63052f20afc39e87110eb83e_20240207","","","","7","7","851",""
"7293","0","html-button-response","208","2933302","0.0-207.0","63052f20afc39e87110eb83e","63052f20afc39e87110eb83e_20240207","","","","5","5","2192",""
"11308","0","html-button-response","209","2945112","0.0-208.0","63052f20afc39e87110eb83e","63052f20afc39e87110eb83e_20240207","","","","7","6","580",""
"7764","0","html-button-response","210","2953388","0.0-209.0","63052f20afc39e87110eb83e","63052f20afc39e87110eb83e_20240207","","","","9","5","33",""
"4656","0","html-button-response","211","2958550","0.0-210.0","63052f20afc39e87110eb83e","63052f20afc39e87110eb83e_20240207","","","","8","5","71",""
"4039","0","html-button-response","212","2963092","0.0-211.0","63052f20afc39e87110eb83e","63052f20afc39e87110eb83e_20240207","","","","5","6","2163",""
"19794","0","html-button-response","213","2983398","0.0-212.0","63052f20afc39e87110eb83e","63052f20afc39e87110eb83e_20240207","","","","3","4","351",""
"10458","0","html-button-response","214","2994367","0.0-213.0","63052f20afc39e87110eb83e","63052f20afc39e87110eb83e_20240207","","","","8","5","395",""
"9416","0","html-button-response","215","3004296","0.0-214.0","63052f20afc39e87110eb83e","63052f20afc39e87110eb83e_20240207","","","","4","4","959",""
"8363","0","html-button-response","216","3013174","0.0-215.0","63052f20afc39e87110eb83e","63052f20afc39e87110eb83e_20240207","","","","8","6","703",""
"6273","0","html-button-response","217","3019952","0.0-216.0","63052f20afc39e87110eb83e","63052f20afc39e87110eb83e_20240207","","","","3","5","1778",""
"9951","0","html-button-response","218","3030411","0.0-217.0","63052f20afc39e87110eb83e","63052f20afc39e87110eb83e_20240207","","","","5","4","840",""
"8914","0","html-button-response","219","3039827","0.0-218.0","63052f20afc39e87110eb83e","63052f20afc39e87110eb83e_20240207","","","","7","7","924",""
"7820","0","html-button-response","220","3048150","0.0-219.0","63052f20afc39e87110eb83e","63052f20afc39e87110eb83e_20240207","","","","5","8","1747",""
"6809","0","html-button-response","221","3055470","0.0-220.0","63052f20afc39e87110eb83e","63052f20afc39e87110eb83e_20240207","","","","5","2","480",""
"4743","0","html-button-response","222","3060728","0.0-221.0","63052f20afc39e87110eb83e","63052f20afc39e87110eb83e_20240207","","","","5","5","955",""
"17158","0","html-button-response","223","3078392","0.0-222.0","63052f20afc39e87110eb83e","63052f20afc39e87110eb83e_20240207","","","","5","1","1206",""
"7446","0","html-button-response","224","3086341","0.0-223.0","63052f20afc39e87110eb83e","63052f20afc39e87110eb83e_20240207","","","","7","6","579",""
"9525","0","html-button-response","225","3096379","0.0-224.0","63052f20afc39e87110eb83e","63052f20afc39e87110eb83e_20240207","","","","8","6","368",""
"2400","0","html-button-response","226","3099280","0.0-225.0","63052f20afc39e87110eb83e","63052f20afc39e87110eb83e_20240207","","","Thank you. You have reached the end. 
                       <br>Click the button below to reveal your compensation.
                        <br><br>","","","","32,709,1047,1224,823,271,1948,1232,416,1196,821,2147,2132,363,104,1767,2051,735,385,1474,1105,272,343,874,1851,541,1145,853,614,90,226,1744,155,1963,1251,1303,2017,43,515,811,1827,670,967,860,2014,2105,87,655,1396,1970,887,1799,1086,1904,279,2065,464,1641,1376,1185,1018,1879,1082,1090,1540,1577,901,1750,957,1938,1243,248,1527,463,1260,1614,453,1044,175,1236,963,1135,1335,1931,1052,1794,1269,1611,1455,1032,222,1103,1978,445,2057,1374,679,698,1471,92,1670,1177,420,1832,1681,1472,1910,1816,1420,628,1617,1916,1156,1484,1568,1657,1356,344,545,1697,1318,682,558,1311,1774,1900,1975,718,1824,894,1362,450,1992,989,510,868,170,927,2001,1075,1016,178,1807,855,2186,1628,1560,1428,863,898,1574,75,994,1595,680,2082,1268,652,638,728,936,2020,664,379,1045,11,2023,1536,830,269,199,200,908,1446,205,1087,2187,954,388,604,673,1028,1848,961,768,1125,1160,128,1899,1299,1171,1939,2040,1999,1508,259,704,6,1800,2185,1213,851,2192,580,33,71,2163,351,395,959,703,1778,840,924,1747,480,955,1206,579,368"
