"rt","response","trial_type","trial_index","time_elapsed","internal_node_id","part_ID","ID_DATE","screen_id","stimulus","rating","img_id"
"6805","0","html-button-response","0","6822","0.0-0.0","5e98bc8a81343c0c36dc33ff","5e98bc8a81343c0c36dc33ff_20240212","","","",""
"3220","[object Object]","survey-html-form","1","10558","0.0-1.0","5e98bc8a81343c0c36dc33ff","5e98bc8a81343c0c36dc33ff_20240212","prolific_id_page","","",""
"10790","0","html-button-response","2","21350","0.0-2.0","5e98bc8a81343c0c36dc33ff","5e98bc8a81343c0c36dc33ff_20240212","","","",""
"1994","0","html-button-response","3","23852","0.0-3.0","5e98bc8a81343c0c36dc33ff","5e98bc8a81343c0c36dc33ff_20240212","","
<div>
Great! You will now go on to rate the faces.
<br><br>
</div>
","",""
"7014","0","html-button-response","4","31383","0.0-4.0","5e98bc8a81343c0c36dc33ff","5e98bc8a81343c0c36dc33ff_20240212","","","7","3"
"5315","0","html-button-response","5","37204","0.0-5.0","5e98bc8a81343c0c36dc33ff","5e98bc8a81343c0c36dc33ff_20240212","","","4","55"
"20038","0","html-button-response","6","57744","0.0-6.0","5e98bc8a81343c0c36dc33ff","5e98bc8a81343c0c36dc33ff_20240212","","","3","70"
"7788","0","html-button-response","7","66035","0.0-7.0","5e98bc8a81343c0c36dc33ff","5e98bc8a81343c0c36dc33ff_20240212","","","4","2"
"3284","0","html-button-response","8","69837","0.0-8.0","5e98bc8a81343c0c36dc33ff","5e98bc8a81343c0c36dc33ff_20240212","","","3","111"
"4629","0","html-button-response","9","74979","0.0-9.0","5e98bc8a81343c0c36dc33ff","5e98bc8a81343c0c36dc33ff_20240212","","","4","130"
"3719","0","html-button-response","10","79209","0.0-10.0","5e98bc8a81343c0c36dc33ff","5e98bc8a81343c0c36dc33ff_20240212","","","6","4"
"4489","0","html-button-response","11","84212","0.0-11.0","5e98bc8a81343c0c36dc33ff","5e98bc8a81343c0c36dc33ff_20240212","","","4","56"
"13890","0","html-button-response","12","98611","0.0-12.0","5e98bc8a81343c0c36dc33ff","5e98bc8a81343c0c36dc33ff_20240212","","","3","62"
"7498","0","html-button-response","13","106620","0.0-13.0","5e98bc8a81343c0c36dc33ff","5e98bc8a81343c0c36dc33ff_20240212","","","6","113"
"5459","0","html-button-response","14","112599","0.0-14.0","5e98bc8a81343c0c36dc33ff","5e98bc8a81343c0c36dc33ff_20240212","","","8","5"
"5692","0","html-button-response","15","118794","0.0-15.0","5e98bc8a81343c0c36dc33ff","5e98bc8a81343c0c36dc33ff_20240212","","","8","131"
"5385","0","html-button-response","16","124706","0.0-16.0","5e98bc8a81343c0c36dc33ff","5e98bc8a81343c0c36dc33ff_20240212","","","5","1"
"9531","0","html-button-response","17","134739","0.0-17.0","5e98bc8a81343c0c36dc33ff","5e98bc8a81343c0c36dc33ff_20240212","","","7","119"
"25486","0","html-button-response","18","160729","0.0-18.0","5e98bc8a81343c0c36dc33ff","5e98bc8a81343c0c36dc33ff_20240212","","","5","110"
"6512","0","html-button-response","19","167753","0.0-19.0","5e98bc8a81343c0c36dc33ff","5e98bc8a81343c0c36dc33ff_20240212","","","6","121"
"10062","0","html-button-response","20","178326","0.0-20.0","5e98bc8a81343c0c36dc33ff","5e98bc8a81343c0c36dc33ff_20240212","","","5","14"
"8035","0","html-button-response","21","186870","0.0-21.0","5e98bc8a81343c0c36dc33ff","5e98bc8a81343c0c36dc33ff_20240212","","","3","17"
"3893","0","html-button-response","22","191268","0.0-22.0","5e98bc8a81343c0c36dc33ff","5e98bc8a81343c0c36dc33ff_20240212","","","7","127"
"7287","0","html-button-response","23","199068","0.0-23.0","5e98bc8a81343c0c36dc33ff","5e98bc8a81343c0c36dc33ff_20240212","","","2","12"
"4384","0","html-button-response","24","203956","0.0-24.0","5e98bc8a81343c0c36dc33ff","5e98bc8a81343c0c36dc33ff_20240212","","","3","13"
"5980","0","html-button-response","25","210437","0.0-25.0","5e98bc8a81343c0c36dc33ff","5e98bc8a81343c0c36dc33ff_20240212","","","7","126"
"3465","0","html-button-response","26","214416","0.0-26.0","5e98bc8a81343c0c36dc33ff","5e98bc8a81343c0c36dc33ff_20240212","","","7","129"
"3351","0","html-button-response","27","218276","0.0-27.0","5e98bc8a81343c0c36dc33ff","5e98bc8a81343c0c36dc33ff_20240212","","","7","123"
"3196","0","html-button-response","28","221978","0.0-28.0","5e98bc8a81343c0c36dc33ff","5e98bc8a81343c0c36dc33ff_20240212","","","7","118"
"4812","0","html-button-response","29","227302","0.0-29.0","5e98bc8a81343c0c36dc33ff","5e98bc8a81343c0c36dc33ff_20240212","","","7","117"
"4114","0","html-button-response","30","231918","0.0-30.0","5e98bc8a81343c0c36dc33ff","5e98bc8a81343c0c36dc33ff_20240212","","","7","67"
"3735","0","html-button-response","31","236162","0.0-31.0","5e98bc8a81343c0c36dc33ff","5e98bc8a81343c0c36dc33ff_20240212","","","6","68"
"8769","0","html-button-response","32","245435","0.0-32.0","5e98bc8a81343c0c36dc33ff","5e98bc8a81343c0c36dc33ff_20240212","","","8","125"
"3774","0","html-button-response","33","249726","0.0-33.0","5e98bc8a81343c0c36dc33ff","5e98bc8a81343c0c36dc33ff_20240212","","","6","11"
"3116","0","html-button-response","34","253346","0.0-34.0","5e98bc8a81343c0c36dc33ff","5e98bc8a81343c0c36dc33ff_20240212","","","8","128"
"4623","0","html-button-response","35","258473","0.0-35.0","5e98bc8a81343c0c36dc33ff","5e98bc8a81343c0c36dc33ff_20240212","","","8","112"
"3766","0","html-button-response","36","262738","0.0-36.0","5e98bc8a81343c0c36dc33ff","5e98bc8a81343c0c36dc33ff_20240212","","","4","63"
"11914","0","html-button-response","37","275167","0.0-37.0","5e98bc8a81343c0c36dc33ff","5e98bc8a81343c0c36dc33ff_20240212","","","8","69"
"8976","0","html-button-response","38","284657","0.0-38.0","5e98bc8a81343c0c36dc33ff","5e98bc8a81343c0c36dc33ff_20240212","","","8","65"
"3811","0","html-button-response","39","288971","0.0-39.0","5e98bc8a81343c0c36dc33ff","5e98bc8a81343c0c36dc33ff_20240212","","","4","15"
"7893","0","html-button-response","40","297381","0.0-40.0","5e98bc8a81343c0c36dc33ff","5e98bc8a81343c0c36dc33ff_20240212","","","2","71"
"3835","0","html-button-response","41","301728","0.0-41.0","5e98bc8a81343c0c36dc33ff","5e98bc8a81343c0c36dc33ff_20240212","","","4","16"
"4506","0","html-button-response","42","306741","0.0-42.0","5e98bc8a81343c0c36dc33ff","5e98bc8a81343c0c36dc33ff_20240212","","","8","114"
"6040","0","html-button-response","43","313289","0.0-43.0","5e98bc8a81343c0c36dc33ff","5e98bc8a81343c0c36dc33ff_20240212","","","8","116"
"4288","0","html-button-response","44","318086","0.0-44.0","5e98bc8a81343c0c36dc33ff","5e98bc8a81343c0c36dc33ff_20240212","","","8","59"
"3990","0","html-button-response","45","322582","0.0-45.0","5e98bc8a81343c0c36dc33ff","5e98bc8a81343c0c36dc33ff_20240212","","","1","60"
"4018","0","html-button-response","46","327107","0.0-46.0","5e98bc8a81343c0c36dc33ff","5e98bc8a81343c0c36dc33ff_20240212","","","7","66"
"3320","0","html-button-response","47","330934","0.0-47.0","5e98bc8a81343c0c36dc33ff","5e98bc8a81343c0c36dc33ff_20240212","","","8","64"
"3577","0","html-button-response","48","335013","0.0-48.0","5e98bc8a81343c0c36dc33ff","5e98bc8a81343c0c36dc33ff_20240212","","","8","7"
"8578","0","html-button-response","49","344109","0.0-49.0","5e98bc8a81343c0c36dc33ff","5e98bc8a81343c0c36dc33ff_20240212","","","3","10"
"5414","0","html-button-response","50","350039","0.0-50.0","5e98bc8a81343c0c36dc33ff","5e98bc8a81343c0c36dc33ff_20240212","","","8","72"
"4805","0","html-button-response","51","355347","0.0-51.0","5e98bc8a81343c0c36dc33ff","5e98bc8a81343c0c36dc33ff_20240212","","","3","9"
"3150","0","html-button-response","52","359009","0.0-52.0","5e98bc8a81343c0c36dc33ff","5e98bc8a81343c0c36dc33ff_20240212","","","8","57"
"2565","0","html-button-response","53","362088","0.0-53.0","5e98bc8a81343c0c36dc33ff","5e98bc8a81343c0c36dc33ff_20240212","","","8","109"
"4593","0","html-button-response","54","367183","0.0-54.0","5e98bc8a81343c0c36dc33ff","5e98bc8a81343c0c36dc33ff_20240212","","","9","6"
"3307","0","html-button-response","55","370993","0.0-55.0","5e98bc8a81343c0c36dc33ff","5e98bc8a81343c0c36dc33ff_20240212","","","9","18"
"3721","0","html-button-response","56","375230","0.0-56.0","5e98bc8a81343c0c36dc33ff","5e98bc8a81343c0c36dc33ff_20240212","","","8","124"
"3963","0","html-button-response","57","379708","0.0-57.0","5e98bc8a81343c0c36dc33ff","5e98bc8a81343c0c36dc33ff_20240212","","","8","122"
"2967","0","html-button-response","58","383178","0.0-58.0","5e98bc8a81343c0c36dc33ff","5e98bc8a81343c0c36dc33ff_20240212","","","8","115"
"5632","0","html-button-response","59","389319","0.0-59.0","5e98bc8a81343c0c36dc33ff","5e98bc8a81343c0c36dc33ff_20240212","","","6","58"
"2872","0","html-button-response","60","392702","0.0-60.0","5e98bc8a81343c0c36dc33ff","5e98bc8a81343c0c36dc33ff_20240212","","","8","120"
"2781","0","html-button-response","61","395996","0.0-61.0","5e98bc8a81343c0c36dc33ff","5e98bc8a81343c0c36dc33ff_20240212","","","8","61"
"2811","0","html-button-response","62","399324","0.0-62.0","5e98bc8a81343c0c36dc33ff","5e98bc8a81343c0c36dc33ff_20240212","","","7","8"
"2431","0","html-button-response","63","402258","0.0-63.0","5e98bc8a81343c0c36dc33ff","5e98bc8a81343c0c36dc33ff_20240212","","","",""
"3363","0","html-button-response","64","406124","0.0-64.0","5e98bc8a81343c0c36dc33ff","5e98bc8a81343c0c36dc33ff_20240212","","","8","32"
"2397","0","html-button-response","65","409023","0.0-65.0","5e98bc8a81343c0c36dc33ff","5e98bc8a81343c0c36dc33ff_20240212","","","9","80"
"3993","0","html-button-response","66","413518","0.0-66.0","5e98bc8a81343c0c36dc33ff","5e98bc8a81343c0c36dc33ff_20240212","","","9","90"
"7253","0","html-button-response","67","421283","0.0-67.0","5e98bc8a81343c0c36dc33ff","5e98bc8a81343c0c36dc33ff_20240212","","","9","141"
"2923","0","html-button-response","68","424710","0.0-68.0","5e98bc8a81343c0c36dc33ff","5e98bc8a81343c0c36dc33ff_20240212","","","9","83"
"7567","0","html-button-response","69","432788","0.0-69.0","5e98bc8a81343c0c36dc33ff","5e98bc8a81343c0c36dc33ff_20240212","","","7","19"
"7190","0","html-button-response","70","440482","0.0-70.0","5e98bc8a81343c0c36dc33ff","5e98bc8a81343c0c36dc33ff_20240212","","","8","151"
"2310","0","html-button-response","71","443298","0.0-71.0","5e98bc8a81343c0c36dc33ff","5e98bc8a81343c0c36dc33ff_20240212","","","8","135"
"5549","0","html-button-response","72","449356","0.0-72.0","5e98bc8a81343c0c36dc33ff","5e98bc8a81343c0c36dc33ff_20240212","","","8","152"
"3860","0","html-button-response","73","453719","0.0-73.0","5e98bc8a81343c0c36dc33ff","5e98bc8a81343c0c36dc33ff_20240212","","","4","36"
"5610","0","html-button-response","74","459841","0.0-74.0","5e98bc8a81343c0c36dc33ff","5e98bc8a81343c0c36dc33ff_20240212","","","3","33"
"3216","0","html-button-response","75","463561","0.0-75.0","5e98bc8a81343c0c36dc33ff","5e98bc8a81343c0c36dc33ff_20240212","","","9","86"
"2482","0","html-button-response","76","466558","0.0-76.0","5e98bc8a81343c0c36dc33ff","5e98bc8a81343c0c36dc33ff_20240212","","","8","89"
"3329","0","html-button-response","77","470402","0.0-77.0","5e98bc8a81343c0c36dc33ff","5e98bc8a81343c0c36dc33ff_20240212","","","7","179"
"5829","0","html-button-response","78","476734","0.0-78.0","5e98bc8a81343c0c36dc33ff","5e98bc8a81343c0c36dc33ff_20240212","","","3","29"
"3769","0","html-button-response","79","481015","0.0-79.0","5e98bc8a81343c0c36dc33ff","5e98bc8a81343c0c36dc33ff_20240212","","","9","88"
"3949","0","html-button-response","80","485476","0.0-80.0","5e98bc8a81343c0c36dc33ff","5e98bc8a81343c0c36dc33ff_20240212","","","3","25"
"3402","0","html-button-response","81","489382","0.0-81.0","5e98bc8a81343c0c36dc33ff","5e98bc8a81343c0c36dc33ff_20240212","","","8","146"
"3135","0","html-button-response","82","493028","0.0-82.0","5e98bc8a81343c0c36dc33ff","5e98bc8a81343c0c36dc33ff_20240212","","","8","180"
"8607","0","html-button-response","83","502146","0.0-83.0","5e98bc8a81343c0c36dc33ff","5e98bc8a81343c0c36dc33ff_20240212","","","8","82"
"3245","0","html-button-response","84","505908","0.0-84.0","5e98bc8a81343c0c36dc33ff","5e98bc8a81343c0c36dc33ff_20240212","","","8","150"
"4151","0","html-button-response","85","510573","0.0-85.0","5e98bc8a81343c0c36dc33ff","5e98bc8a81343c0c36dc33ff_20240212","","","8","140"
"2126","0","html-button-response","86","513215","0.0-86.0","5e98bc8a81343c0c36dc33ff","5e98bc8a81343c0c36dc33ff_20240212","","","8","85"
"2427","0","html-button-response","87","516159","0.0-87.0","5e98bc8a81343c0c36dc33ff","5e98bc8a81343c0c36dc33ff_20240212","","","9","79"
"2767","0","html-button-response","88","519431","0.0-88.0","5e98bc8a81343c0c36dc33ff","5e98bc8a81343c0c36dc33ff_20240212","","","4","26"
"2252","0","html-button-response","89","522190","0.0-89.0","5e98bc8a81343c0c36dc33ff","5e98bc8a81343c0c36dc33ff_20240212","","","3","28"
"2673","0","html-button-response","90","525374","0.0-90.0","5e98bc8a81343c0c36dc33ff","5e98bc8a81343c0c36dc33ff_20240212","","","3","22"
"2800","0","html-button-response","91","528686","0.0-91.0","5e98bc8a81343c0c36dc33ff","5e98bc8a81343c0c36dc33ff_20240212","","","8","81"
"2587","0","html-button-response","92","531776","0.0-92.0","5e98bc8a81343c0c36dc33ff","5e98bc8a81343c0c36dc33ff_20240212","","","8","154"
"3142","0","html-button-response","93","535420","0.0-93.0","5e98bc8a81343c0c36dc33ff","5e98bc8a81343c0c36dc33ff_20240212","","","5","24"
"2721","0","html-button-response","94","538643","0.0-94.0","5e98bc8a81343c0c36dc33ff","5e98bc8a81343c0c36dc33ff_20240212","","","9","74"
"3627","0","html-button-response","95","542788","0.0-95.0","5e98bc8a81343c0c36dc33ff","5e98bc8a81343c0c36dc33ff_20240212","","","2","21"
"2451","0","html-button-response","96","545748","0.0-96.0","5e98bc8a81343c0c36dc33ff","5e98bc8a81343c0c36dc33ff_20240212","","","5","35"
"3083","0","html-button-response","97","549339","0.0-97.0","5e98bc8a81343c0c36dc33ff","5e98bc8a81343c0c36dc33ff_20240212","","","7","138"
"4235","0","html-button-response","98","554083","0.0-98.0","5e98bc8a81343c0c36dc33ff","5e98bc8a81343c0c36dc33ff_20240212","","","1","34"
"3849","0","html-button-response","99","558447","0.0-99.0","5e98bc8a81343c0c36dc33ff","5e98bc8a81343c0c36dc33ff_20240212","","","8","133"
"3413","0","html-button-response","100","562363","0.0-100.0","5e98bc8a81343c0c36dc33ff","5e98bc8a81343c0c36dc33ff_20240212","","","1","20"
"2427","0","html-button-response","101","565293","0.0-101.0","5e98bc8a81343c0c36dc33ff","5e98bc8a81343c0c36dc33ff_20240212","","","8","147"
"3817","0","html-button-response","102","569612","0.0-102.0","5e98bc8a81343c0c36dc33ff","5e98bc8a81343c0c36dc33ff_20240212","","","8","142"
"2942","0","html-button-response","103","573066","0.0-103.0","5e98bc8a81343c0c36dc33ff","5e98bc8a81343c0c36dc33ff_20240212","","","7","23"
"2503","0","html-button-response","104","576086","0.0-104.0","5e98bc8a81343c0c36dc33ff","5e98bc8a81343c0c36dc33ff_20240212","","","5","30"
"2430","0","html-button-response","105","579028","0.0-105.0","5e98bc8a81343c0c36dc33ff","5e98bc8a81343c0c36dc33ff_20240212","","","8","78"
"5360","0","html-button-response","106","584894","0.0-106.0","5e98bc8a81343c0c36dc33ff","5e98bc8a81343c0c36dc33ff_20240212","","","3","27"
"2447","0","html-button-response","107","587854","0.0-107.0","5e98bc8a81343c0c36dc33ff","5e98bc8a81343c0c36dc33ff_20240212","","","8","73"
"2116","0","html-button-response","108","590510","0.0-108.0","5e98bc8a81343c0c36dc33ff","5e98bc8a81343c0c36dc33ff_20240212","","","8","132"
"2609","0","html-button-response","109","593621","0.0-109.0","5e98bc8a81343c0c36dc33ff","5e98bc8a81343c0c36dc33ff_20240212","","","9","87"
"2371","0","html-button-response","110","596496","0.0-110.0","5e98bc8a81343c0c36dc33ff","5e98bc8a81343c0c36dc33ff_20240212","","","9","137"
"2264","0","html-button-response","111","599275","0.0-111.0","5e98bc8a81343c0c36dc33ff","5e98bc8a81343c0c36dc33ff_20240212","","","8","178"
"2126","0","html-button-response","112","601914","0.0-112.0","5e98bc8a81343c0c36dc33ff","5e98bc8a81343c0c36dc33ff_20240212","","","8","139"
"3315","0","html-button-response","113","605741","0.0-113.0","5e98bc8a81343c0c36dc33ff","5e98bc8a81343c0c36dc33ff_20240212","","","7","143"
"2509","0","html-button-response","114","608753","0.0-114.0","5e98bc8a81343c0c36dc33ff","5e98bc8a81343c0c36dc33ff_20240212","","","7","144"
"2676","0","html-button-response","115","611939","0.0-115.0","5e98bc8a81343c0c36dc33ff","5e98bc8a81343c0c36dc33ff_20240212","","","8","148"
"2224","0","html-button-response","116","614666","0.0-116.0","5e98bc8a81343c0c36dc33ff","5e98bc8a81343c0c36dc33ff_20240212","","","8","153"
"2529","0","html-button-response","117","617697","0.0-117.0","5e98bc8a81343c0c36dc33ff","5e98bc8a81343c0c36dc33ff_20240212","","","9","77"
"3125","0","html-button-response","118","621332","0.0-118.0","5e98bc8a81343c0c36dc33ff","5e98bc8a81343c0c36dc33ff_20240212","","","8","76"
"2809","0","html-button-response","119","624648","0.0-119.0","5e98bc8a81343c0c36dc33ff","5e98bc8a81343c0c36dc33ff_20240212","","","8","136"
"2460","0","html-button-response","120","627626","0.0-120.0","5e98bc8a81343c0c36dc33ff","5e98bc8a81343c0c36dc33ff_20240212","","","8","84"
"3337","0","html-button-response","121","631473","0.0-121.0","5e98bc8a81343c0c36dc33ff","5e98bc8a81343c0c36dc33ff_20240212","","","9","75"
"3102","0","html-button-response","122","635092","0.0-122.0","5e98bc8a81343c0c36dc33ff","5e98bc8a81343c0c36dc33ff_20240212","","","9","149"
"3008","0","html-button-response","123","638600","0.0-123.0","5e98bc8a81343c0c36dc33ff","5e98bc8a81343c0c36dc33ff_20240212","","","8","145"
"5247","0","html-button-response","124","644360","0.0-124.0","5e98bc8a81343c0c36dc33ff","5e98bc8a81343c0c36dc33ff_20240212","","","1","31"
"4177","0","html-button-response","125","649038","0.0-125.0","5e98bc8a81343c0c36dc33ff","5e98bc8a81343c0c36dc33ff_20240212","","","7","134"
"1829","0","html-button-response","126","651385","0.0-126.0","5e98bc8a81343c0c36dc33ff","5e98bc8a81343c0c36dc33ff_20240212","","","",""
"6643","0","html-button-response","127","658531","0.0-127.0","5e98bc8a81343c0c36dc33ff","5e98bc8a81343c0c36dc33ff_20240212","","","6","48"
"2857","0","html-button-response","128","661896","0.0-128.0","5e98bc8a81343c0c36dc33ff","5e98bc8a81343c0c36dc33ff_20240212","","","4","182"
"2758","0","html-button-response","129","665164","0.0-129.0","5e98bc8a81343c0c36dc33ff","5e98bc8a81343c0c36dc33ff_20240212","","","2","51"
"3480","0","html-button-response","130","669147","0.0-130.0","5e98bc8a81343c0c36dc33ff","5e98bc8a81343c0c36dc33ff_20240212","","","4","39"
"3137","0","html-button-response","131","672788","0.0-131.0","5e98bc8a81343c0c36dc33ff","5e98bc8a81343c0c36dc33ff_20240212","","","3","38"
"3703","0","html-button-response","132","676992","0.0-132.0","5e98bc8a81343c0c36dc33ff","5e98bc8a81343c0c36dc33ff_20240212","","","1","47"
"2820","0","html-button-response","133","680315","0.0-133.0","5e98bc8a81343c0c36dc33ff","5e98bc8a81343c0c36dc33ff_20240212","","","9","97"
"2481","0","html-button-response","134","683298","0.0-134.0","5e98bc8a81343c0c36dc33ff","5e98bc8a81343c0c36dc33ff_20240212","","","8","173"
"3437","0","html-button-response","135","687238","0.0-135.0","5e98bc8a81343c0c36dc33ff","5e98bc8a81343c0c36dc33ff_20240212","","","4","91"
"2434","0","html-button-response","136","690176","0.0-136.0","5e98bc8a81343c0c36dc33ff","5e98bc8a81343c0c36dc33ff_20240212","","","9","103"
"2225","0","html-button-response","137","692903","0.0-137.0","5e98bc8a81343c0c36dc33ff","5e98bc8a81343c0c36dc33ff_20240212","","","9","100"
"3007","0","html-button-response","138","696425","0.0-138.0","5e98bc8a81343c0c36dc33ff","5e98bc8a81343c0c36dc33ff_20240212","","","4","50"
"3086","0","html-button-response","139","700014","0.0-139.0","5e98bc8a81343c0c36dc33ff","5e98bc8a81343c0c36dc33ff_20240212","","","3","165"
"2701","0","html-button-response","140","703233","0.0-140.0","5e98bc8a81343c0c36dc33ff","5e98bc8a81343c0c36dc33ff_20240212","","","2","37"
"2713","0","html-button-response","141","706462","0.0-141.0","5e98bc8a81343c0c36dc33ff","5e98bc8a81343c0c36dc33ff_20240212","","","6","106"
"2553","0","html-button-response","142","709526","0.0-142.0","5e98bc8a81343c0c36dc33ff","5e98bc8a81343c0c36dc33ff_20240212","","","1","53"
"2467","0","html-button-response","143","712507","0.0-143.0","5e98bc8a81343c0c36dc33ff","5e98bc8a81343c0c36dc33ff_20240212","","","8","98"
"2328","0","html-button-response","144","715337","0.0-144.0","5e98bc8a81343c0c36dc33ff","5e98bc8a81343c0c36dc33ff_20240212","","","8","156"
"2666","0","html-button-response","145","718514","0.0-145.0","5e98bc8a81343c0c36dc33ff","5e98bc8a81343c0c36dc33ff_20240212","","","4","155"
"2982","0","html-button-response","146","722008","0.0-146.0","5e98bc8a81343c0c36dc33ff","5e98bc8a81343c0c36dc33ff_20240212","","","4","164"
"3590","0","html-button-response","147","726112","0.0-147.0","5e98bc8a81343c0c36dc33ff","5e98bc8a81343c0c36dc33ff_20240212","","","7","96"
"2554","0","html-button-response","148","729176","0.0-148.0","5e98bc8a81343c0c36dc33ff","5e98bc8a81343c0c36dc33ff_20240212","","","6","160"
"1966","0","html-button-response","149","731656","0.0-149.0","5e98bc8a81343c0c36dc33ff","5e98bc8a81343c0c36dc33ff_20240212","","","5","169"
"2255","0","html-button-response","150","734421","0.0-150.0","5e98bc8a81343c0c36dc33ff","5e98bc8a81343c0c36dc33ff_20240212","","","7","102"
"2635","0","html-button-response","151","737569","0.0-151.0","5e98bc8a81343c0c36dc33ff","5e98bc8a81343c0c36dc33ff_20240212","","","1","43"
"2536","0","html-button-response","152","740615","0.0-152.0","5e98bc8a81343c0c36dc33ff","5e98bc8a81343c0c36dc33ff_20240212","","","1","44"
"2548","0","html-button-response","153","743665","0.0-153.0","5e98bc8a81343c0c36dc33ff","5e98bc8a81343c0c36dc33ff_20240212","","","3","175"
"1895","0","html-button-response","154","746077","0.0-154.0","5e98bc8a81343c0c36dc33ff","5e98bc8a81343c0c36dc33ff_20240212","","","5","174"
"4196","0","html-button-response","155","750775","0.0-155.0","5e98bc8a81343c0c36dc33ff","5e98bc8a81343c0c36dc33ff_20240212","","","3","166"
"2648","0","html-button-response","156","753936","0.0-156.0","5e98bc8a81343c0c36dc33ff","5e98bc8a81343c0c36dc33ff_20240212","","","3","93"
"3746","0","html-button-response","157","758186","0.0-157.0","5e98bc8a81343c0c36dc33ff","5e98bc8a81343c0c36dc33ff_20240212","","","9","94"
"2294","0","html-button-response","158","760983","0.0-158.0","5e98bc8a81343c0c36dc33ff","5e98bc8a81343c0c36dc33ff_20240212","","","6","158"
"1992","0","html-button-response","159","763494","0.0-159.0","5e98bc8a81343c0c36dc33ff","5e98bc8a81343c0c36dc33ff_20240212","","","5","171"
"1969","0","html-button-response","160","765965","0.0-160.0","5e98bc8a81343c0c36dc33ff","5e98bc8a81343c0c36dc33ff_20240212","","","4","177"
"2945","0","html-button-response","161","769418","0.0-161.0","5e98bc8a81343c0c36dc33ff","5e98bc8a81343c0c36dc33ff_20240212","","","1","42"
"2344","0","html-button-response","162","772271","0.0-162.0","5e98bc8a81343c0c36dc33ff","5e98bc8a81343c0c36dc33ff_20240212","","","2","168"
"3992","0","html-button-response","163","776770","0.0-163.0","5e98bc8a81343c0c36dc33ff","5e98bc8a81343c0c36dc33ff_20240212","","","1","99"
"3439","0","html-button-response","164","780714","0.0-164.0","5e98bc8a81343c0c36dc33ff","5e98bc8a81343c0c36dc33ff_20240212","","","1","108"
"4372","0","html-button-response","165","785594","0.0-165.0","5e98bc8a81343c0c36dc33ff","5e98bc8a81343c0c36dc33ff_20240212","","","3","161"
"3360","0","html-button-response","166","789462","0.0-166.0","5e98bc8a81343c0c36dc33ff","5e98bc8a81343c0c36dc33ff_20240212","","","1","163"
"2475","0","html-button-response","167","792441","0.0-167.0","5e98bc8a81343c0c36dc33ff","5e98bc8a81343c0c36dc33ff_20240212","","","8","92"
"2433","0","html-button-response","168","795389","0.0-168.0","5e98bc8a81343c0c36dc33ff","5e98bc8a81343c0c36dc33ff_20240212","","","6","176"
"4421","0","html-button-response","169","800315","0.0-169.0","5e98bc8a81343c0c36dc33ff","5e98bc8a81343c0c36dc33ff_20240212","","","5","105"
"3144","0","html-button-response","170","803962","0.0-170.0","5e98bc8a81343c0c36dc33ff","5e98bc8a81343c0c36dc33ff_20240212","","","7","104"
"5423","0","html-button-response","171","809893","0.0-171.0","5e98bc8a81343c0c36dc33ff","5e98bc8a81343c0c36dc33ff_20240212","","","4","162"
"2460","0","html-button-response","172","812866","0.0-172.0","5e98bc8a81343c0c36dc33ff","5e98bc8a81343c0c36dc33ff_20240212","","","1","54"
"2316","0","html-button-response","173","815699","0.0-173.0","5e98bc8a81343c0c36dc33ff","5e98bc8a81343c0c36dc33ff_20240212","","","2","40"
"3345","0","html-button-response","174","819553","0.0-174.0","5e98bc8a81343c0c36dc33ff","5e98bc8a81343c0c36dc33ff_20240212","","","5","157"
"2111","0","html-button-response","175","822182","0.0-175.0","5e98bc8a81343c0c36dc33ff","5e98bc8a81343c0c36dc33ff_20240212","","","6","167"
"2705","0","html-button-response","176","825390","0.0-176.0","5e98bc8a81343c0c36dc33ff","5e98bc8a81343c0c36dc33ff_20240212","","","3","95"
"2348","0","html-button-response","177","828241","0.0-177.0","5e98bc8a81343c0c36dc33ff","5e98bc8a81343c0c36dc33ff_20240212","","","1","49"
"2626","0","html-button-response","178","831383","0.0-178.0","5e98bc8a81343c0c36dc33ff","5e98bc8a81343c0c36dc33ff_20240212","","","1","45"
"2344","0","html-button-response","179","834239","0.0-179.0","5e98bc8a81343c0c36dc33ff","5e98bc8a81343c0c36dc33ff_20240212","","","1","46"
"2521","0","html-button-response","180","837277","0.0-180.0","5e98bc8a81343c0c36dc33ff","5e98bc8a81343c0c36dc33ff_20240212","","","6","170"
"2558","0","html-button-response","181","840347","0.0-181.0","5e98bc8a81343c0c36dc33ff","5e98bc8a81343c0c36dc33ff_20240212","","","2","41"
"2676","0","html-button-response","182","843529","0.0-182.0","5e98bc8a81343c0c36dc33ff","5e98bc8a81343c0c36dc33ff_20240212","","","1","183"
"2228","0","html-button-response","183","846272","0.0-183.0","5e98bc8a81343c0c36dc33ff","5e98bc8a81343c0c36dc33ff_20240212","","","1","52"
"2823","0","html-button-response","184","849606","0.0-184.0","5e98bc8a81343c0c36dc33ff","5e98bc8a81343c0c36dc33ff_20240212","","","5","159"
"8337","0","html-button-response","185","858454","0.0-185.0","5e98bc8a81343c0c36dc33ff","5e98bc8a81343c0c36dc33ff_20240212","","","8","107"
"2527","0","html-button-response","186","861486","0.0-186.0","5e98bc8a81343c0c36dc33ff","5e98bc8a81343c0c36dc33ff_20240212","","","8","101"
"2964","0","html-button-response","187","864952","0.0-187.0","5e98bc8a81343c0c36dc33ff","5e98bc8a81343c0c36dc33ff_20240212","","","1","181"
"2726","0","html-button-response","188","868179","0.0-188.0","5e98bc8a81343c0c36dc33ff","5e98bc8a81343c0c36dc33ff_20240212","","","5","172"
"2090","0","html-button-response","189","870775","0.0-189.0","5e98bc8a81343c0c36dc33ff","5e98bc8a81343c0c36dc33ff_20240212","","Thank you. You have reached the end. 
                       <br>Click the button below to reveal your compensation.
                        <br><br>","",""
