"rt","response","trial_type","trial_index","time_elapsed","internal_node_id","part_ID","ID_DATE","screen_id","stimulus","rating","img_id"
"16307","0","html-button-response","0","16311","0.0-0.0","60ca93b4fcd7ff11d29bcb90","60ca93b4fcd7ff11d29bcb90_20240212","","","",""
"4727","[object Object]","survey-html-form","1","21547","0.0-1.0","60ca93b4fcd7ff11d29bcb90","60ca93b4fcd7ff11d29bcb90_20240212","prolific_id_page","","",""
"14537","0","html-button-response","2","36087","0.0-2.0","60ca93b4fcd7ff11d29bcb90","60ca93b4fcd7ff11d29bcb90_20240212","","","",""
"1528","0","html-button-response","3","38120","0.0-3.0","60ca93b4fcd7ff11d29bcb90","60ca93b4fcd7ff11d29bcb90_20240212","","
<div>
Great! You will now go on to rate the faces.
<br><br>
</div>
","",""
"5598","0","html-button-response","4","44220","0.0-4.0","60ca93b4fcd7ff11d29bcb90","60ca93b4fcd7ff11d29bcb90_20240212","","","9","102"
"3064","0","html-button-response","5","47796","0.0-5.0","60ca93b4fcd7ff11d29bcb90","60ca93b4fcd7ff11d29bcb90_20240212","","","5","53"
"2341","0","html-button-response","6","50643","0.0-6.0","60ca93b4fcd7ff11d29bcb90","60ca93b4fcd7ff11d29bcb90_20240212","","","8","157"
"3154","0","html-button-response","7","54311","0.0-7.0","60ca93b4fcd7ff11d29bcb90","60ca93b4fcd7ff11d29bcb90_20240212","","","9","93"
"4491","0","html-button-response","8","59312","0.0-8.0","60ca93b4fcd7ff11d29bcb90","60ca93b4fcd7ff11d29bcb90_20240212","","","6","168"
"10851","0","html-button-response","9","70675","0.0-9.0","60ca93b4fcd7ff11d29bcb90","60ca93b4fcd7ff11d29bcb90_20240212","","","7","171"
"3210","0","html-button-response","10","74403","0.0-10.0","60ca93b4fcd7ff11d29bcb90","60ca93b4fcd7ff11d29bcb90_20240212","","","4","166"
"3151","0","html-button-response","11","78057","0.0-11.0","60ca93b4fcd7ff11d29bcb90","60ca93b4fcd7ff11d29bcb90_20240212","","","7","101"
"2629","0","html-button-response","12","81191","0.0-12.0","60ca93b4fcd7ff11d29bcb90","60ca93b4fcd7ff11d29bcb90_20240212","","","3","181"
"3094","0","html-button-response","13","84791","0.0-13.0","60ca93b4fcd7ff11d29bcb90","60ca93b4fcd7ff11d29bcb90_20240212","","","5","37"
"3256","0","html-button-response","14","88563","0.0-14.0","60ca93b4fcd7ff11d29bcb90","60ca93b4fcd7ff11d29bcb90_20240212","","","5","44"
"3658","0","html-button-response","15","92729","0.0-15.0","60ca93b4fcd7ff11d29bcb90","60ca93b4fcd7ff11d29bcb90_20240212","","","4","38"
"4996","0","html-button-response","16","98228","0.0-16.0","60ca93b4fcd7ff11d29bcb90","60ca93b4fcd7ff11d29bcb90_20240212","","","5","43"
"3560","0","html-button-response","17","102297","0.0-17.0","60ca93b4fcd7ff11d29bcb90","60ca93b4fcd7ff11d29bcb90_20240212","","","3","47"
"2842","0","html-button-response","18","105647","0.0-18.0","60ca93b4fcd7ff11d29bcb90","60ca93b4fcd7ff11d29bcb90_20240212","","","6","155"
"3758","0","html-button-response","19","109918","0.0-19.0","60ca93b4fcd7ff11d29bcb90","60ca93b4fcd7ff11d29bcb90_20240212","","","6","159"
"2897","0","html-button-response","20","113332","0.0-20.0","60ca93b4fcd7ff11d29bcb90","60ca93b4fcd7ff11d29bcb90_20240212","","","9","94"
"5039","0","html-button-response","21","118885","0.0-21.0","60ca93b4fcd7ff11d29bcb90","60ca93b4fcd7ff11d29bcb90_20240212","","","6","41"
"4960","0","html-button-response","22","124359","0.0-22.0","60ca93b4fcd7ff11d29bcb90","60ca93b4fcd7ff11d29bcb90_20240212","","","5","40"
"8533","0","html-button-response","23","133394","0.0-23.0","60ca93b4fcd7ff11d29bcb90","60ca93b4fcd7ff11d29bcb90_20240212","","","6","160"
"7829","0","html-button-response","24","141731","0.0-24.0","60ca93b4fcd7ff11d29bcb90","60ca93b4fcd7ff11d29bcb90_20240212","","","6","95"
"7357","0","html-button-response","25","149600","0.0-25.0","60ca93b4fcd7ff11d29bcb90","60ca93b4fcd7ff11d29bcb90_20240212","","","6","173"
"5386","0","html-button-response","26","155501","0.0-26.0","60ca93b4fcd7ff11d29bcb90","60ca93b4fcd7ff11d29bcb90_20240212","","","6","106"
"8997","0","html-button-response","27","165009","0.0-27.0","60ca93b4fcd7ff11d29bcb90","60ca93b4fcd7ff11d29bcb90_20240212","","","6","183"
"4405","0","html-button-response","28","169929","0.0-28.0","60ca93b4fcd7ff11d29bcb90","60ca93b4fcd7ff11d29bcb90_20240212","","","6","169"
"4456","0","html-button-response","29","174901","0.0-29.0","60ca93b4fcd7ff11d29bcb90","60ca93b4fcd7ff11d29bcb90_20240212","","","7","97"
"6761","0","html-button-response","30","182171","0.0-30.0","60ca93b4fcd7ff11d29bcb90","60ca93b4fcd7ff11d29bcb90_20240212","","","6","172"
"4787","0","html-button-response","31","187463","0.0-31.0","60ca93b4fcd7ff11d29bcb90","60ca93b4fcd7ff11d29bcb90_20240212","","","6","49"
"6731","0","html-button-response","32","194707","0.0-32.0","60ca93b4fcd7ff11d29bcb90","60ca93b4fcd7ff11d29bcb90_20240212","","","8","96"
"6806","0","html-button-response","33","202026","0.0-33.0","60ca93b4fcd7ff11d29bcb90","60ca93b4fcd7ff11d29bcb90_20240212","","","7","175"
"4609","0","html-button-response","34","207148","0.0-34.0","60ca93b4fcd7ff11d29bcb90","60ca93b4fcd7ff11d29bcb90_20240212","","","7","156"
"6062","0","html-button-response","35","213715","0.0-35.0","60ca93b4fcd7ff11d29bcb90","60ca93b4fcd7ff11d29bcb90_20240212","","","8","100"
"3221","0","html-button-response","36","217449","0.0-36.0","60ca93b4fcd7ff11d29bcb90","60ca93b4fcd7ff11d29bcb90_20240212","","","6","162"
"3970","0","html-button-response","37","221923","0.0-37.0","60ca93b4fcd7ff11d29bcb90","60ca93b4fcd7ff11d29bcb90_20240212","","","5","51"
"2691","0","html-button-response","38","225126","0.0-38.0","60ca93b4fcd7ff11d29bcb90","60ca93b4fcd7ff11d29bcb90_20240212","","","4","52"
"3758","0","html-button-response","39","229393","0.0-39.0","60ca93b4fcd7ff11d29bcb90","60ca93b4fcd7ff11d29bcb90_20240212","","","5","46"
"5456","0","html-button-response","40","235356","0.0-40.0","60ca93b4fcd7ff11d29bcb90","60ca93b4fcd7ff11d29bcb90_20240212","","","5","170"
"6087","0","html-button-response","41","241962","0.0-41.0","60ca93b4fcd7ff11d29bcb90","60ca93b4fcd7ff11d29bcb90_20240212","","","5","158"
"2833","0","html-button-response","42","245303","0.0-42.0","60ca93b4fcd7ff11d29bcb90","60ca93b4fcd7ff11d29bcb90_20240212","","","5","167"
"3125","0","html-button-response","43","248933","0.0-43.0","60ca93b4fcd7ff11d29bcb90","60ca93b4fcd7ff11d29bcb90_20240212","","","4","91"
"2722","0","html-button-response","44","252169","0.0-44.0","60ca93b4fcd7ff11d29bcb90","60ca93b4fcd7ff11d29bcb90_20240212","","","5","45"
"3245","0","html-button-response","45","255928","0.0-45.0","60ca93b4fcd7ff11d29bcb90","60ca93b4fcd7ff11d29bcb90_20240212","","","5","54"
"4195","0","html-button-response","46","260625","0.0-46.0","60ca93b4fcd7ff11d29bcb90","60ca93b4fcd7ff11d29bcb90_20240212","","","6","103"
"2836","0","html-button-response","47","263967","0.0-47.0","60ca93b4fcd7ff11d29bcb90","60ca93b4fcd7ff11d29bcb90_20240212","","","7","92"
"3502","0","html-button-response","48","267976","0.0-48.0","60ca93b4fcd7ff11d29bcb90","60ca93b4fcd7ff11d29bcb90_20240212","","","9","98"
"4526","0","html-button-response","49","273013","0.0-49.0","60ca93b4fcd7ff11d29bcb90","60ca93b4fcd7ff11d29bcb90_20240212","","","5","50"
"2861","0","html-button-response","50","276383","0.0-50.0","60ca93b4fcd7ff11d29bcb90","60ca93b4fcd7ff11d29bcb90_20240212","","","8","104"
"3413","0","html-button-response","51","280305","0.0-51.0","60ca93b4fcd7ff11d29bcb90","60ca93b4fcd7ff11d29bcb90_20240212","","","5","161"
"6118","0","html-button-response","52","286927","0.0-52.0","60ca93b4fcd7ff11d29bcb90","60ca93b4fcd7ff11d29bcb90_20240212","","","5","182"
"3836","0","html-button-response","53","291269","0.0-53.0","60ca93b4fcd7ff11d29bcb90","60ca93b4fcd7ff11d29bcb90_20240212","","","4","42"
"4534","0","html-button-response","54","296309","0.0-54.0","60ca93b4fcd7ff11d29bcb90","60ca93b4fcd7ff11d29bcb90_20240212","","","4","163"
"4112","0","html-button-response","55","300924","0.0-55.0","60ca93b4fcd7ff11d29bcb90","60ca93b4fcd7ff11d29bcb90_20240212","","","5","174"
"2778","0","html-button-response","56","304217","0.0-56.0","60ca93b4fcd7ff11d29bcb90","60ca93b4fcd7ff11d29bcb90_20240212","","","5","39"
"5557","0","html-button-response","57","310279","0.0-57.0","60ca93b4fcd7ff11d29bcb90","60ca93b4fcd7ff11d29bcb90_20240212","","","6","177"
"4514","0","html-button-response","58","315309","0.0-58.0","60ca93b4fcd7ff11d29bcb90","60ca93b4fcd7ff11d29bcb90_20240212","","","5","48"
"5824","0","html-button-response","59","321640","0.0-59.0","60ca93b4fcd7ff11d29bcb90","60ca93b4fcd7ff11d29bcb90_20240212","","","8","105"
"6977","0","html-button-response","60","329120","0.0-60.0","60ca93b4fcd7ff11d29bcb90","60ca93b4fcd7ff11d29bcb90_20240212","","","8","108"
"5807","0","html-button-response","61","335442","0.0-61.0","60ca93b4fcd7ff11d29bcb90","60ca93b4fcd7ff11d29bcb90_20240212","","","6","164"
"9707","0","html-button-response","62","345657","0.0-62.0","60ca93b4fcd7ff11d29bcb90","60ca93b4fcd7ff11d29bcb90_20240212","","","5","165"
"11459","0","html-button-response","63","357627","0.0-63.0","60ca93b4fcd7ff11d29bcb90","60ca93b4fcd7ff11d29bcb90_20240212","","","9","107"
"4245","0","html-button-response","64","362387","0.0-64.0","60ca93b4fcd7ff11d29bcb90","60ca93b4fcd7ff11d29bcb90_20240212","","","8","99"
"5299","0","html-button-response","65","368198","0.0-65.0","60ca93b4fcd7ff11d29bcb90","60ca93b4fcd7ff11d29bcb90_20240212","","","5","176"
"1688","0","html-button-response","66","370392","0.0-66.0","60ca93b4fcd7ff11d29bcb90","60ca93b4fcd7ff11d29bcb90_20240212","","","",""
"4218","0","html-button-response","67","375128","0.0-67.0","60ca93b4fcd7ff11d29bcb90","60ca93b4fcd7ff11d29bcb90_20240212","","","5","6"
"2914","0","html-button-response","68","378558","0.0-68.0","60ca93b4fcd7ff11d29bcb90","60ca93b4fcd7ff11d29bcb90_20240212","","","5","109"
"5372","0","html-button-response","69","384444","0.0-69.0","60ca93b4fcd7ff11d29bcb90","60ca93b4fcd7ff11d29bcb90_20240212","","","5","62"
"3684","0","html-button-response","70","388634","0.0-70.0","60ca93b4fcd7ff11d29bcb90","60ca93b4fcd7ff11d29bcb90_20240212","","","3","112"
"2872","0","html-button-response","71","392009","0.0-71.0","60ca93b4fcd7ff11d29bcb90","60ca93b4fcd7ff11d29bcb90_20240212","","","4","113"
"4682","0","html-button-response","72","397202","0.0-72.0","60ca93b4fcd7ff11d29bcb90","60ca93b4fcd7ff11d29bcb90_20240212","","","4","66"
"3563","0","html-button-response","73","401271","0.0-73.0","60ca93b4fcd7ff11d29bcb90","60ca93b4fcd7ff11d29bcb90_20240212","","","3","8"
"8031","0","html-button-response","74","409804","0.0-74.0","60ca93b4fcd7ff11d29bcb90","60ca93b4fcd7ff11d29bcb90_20240212","","","4","16"
"2782","0","html-button-response","75","413094","0.0-75.0","60ca93b4fcd7ff11d29bcb90","60ca93b4fcd7ff11d29bcb90_20240212","","","6","65"
"2717","0","html-button-response","76","416318","0.0-76.0","60ca93b4fcd7ff11d29bcb90","60ca93b4fcd7ff11d29bcb90_20240212","","","6","129"
"8439","0","html-button-response","77","425264","0.0-77.0","60ca93b4fcd7ff11d29bcb90","60ca93b4fcd7ff11d29bcb90_20240212","","","4","122"
"9246","0","html-button-response","78","435017","0.0-78.0","60ca93b4fcd7ff11d29bcb90","60ca93b4fcd7ff11d29bcb90_20240212","","","4","64"
"13225","0","html-button-response","79","448751","0.0-79.0","60ca93b4fcd7ff11d29bcb90","60ca93b4fcd7ff11d29bcb90_20240212","","","6","67"
"2168","0","html-button-response","80","451433","0.0-80.0","60ca93b4fcd7ff11d29bcb90","60ca93b4fcd7ff11d29bcb90_20240212","","","7","71"
"2790","0","html-button-response","81","454735","0.0-81.0","60ca93b4fcd7ff11d29bcb90","60ca93b4fcd7ff11d29bcb90_20240212","","","5","18"
"15744","0","html-button-response","82","470984","0.0-82.0","60ca93b4fcd7ff11d29bcb90","60ca93b4fcd7ff11d29bcb90_20240212","","","7","68"
"10257","0","html-button-response","83","481749","0.0-83.0","60ca93b4fcd7ff11d29bcb90","60ca93b4fcd7ff11d29bcb90_20240212","","","5","14"
"2723","0","html-button-response","84","484987","0.0-84.0","60ca93b4fcd7ff11d29bcb90","60ca93b4fcd7ff11d29bcb90_20240212","","","5","58"
"4605","0","html-button-response","85","490097","0.0-85.0","60ca93b4fcd7ff11d29bcb90","60ca93b4fcd7ff11d29bcb90_20240212","","","4","57"
"2260","0","html-button-response","86","492871","0.0-86.0","60ca93b4fcd7ff11d29bcb90","60ca93b4fcd7ff11d29bcb90_20240212","","","4","118"
"10745","0","html-button-response","87","504128","0.0-87.0","60ca93b4fcd7ff11d29bcb90","60ca93b4fcd7ff11d29bcb90_20240212","","","5","11"
"6356","0","html-button-response","88","510987","0.0-88.0","60ca93b4fcd7ff11d29bcb90","60ca93b4fcd7ff11d29bcb90_20240212","","","6","127"
"4406","0","html-button-response","89","515898","0.0-89.0","60ca93b4fcd7ff11d29bcb90","60ca93b4fcd7ff11d29bcb90_20240212","","","5","115"
"3651","0","html-button-response","90","520060","0.0-90.0","60ca93b4fcd7ff11d29bcb90","60ca93b4fcd7ff11d29bcb90_20240212","","","6","15"
"3331","0","html-button-response","91","523909","0.0-91.0","60ca93b4fcd7ff11d29bcb90","60ca93b4fcd7ff11d29bcb90_20240212","","","6","56"
"3789","0","html-button-response","92","528205","0.0-92.0","60ca93b4fcd7ff11d29bcb90","60ca93b4fcd7ff11d29bcb90_20240212","","","5","55"
"29118","0","html-button-response","93","557831","0.0-93.0","60ca93b4fcd7ff11d29bcb90","60ca93b4fcd7ff11d29bcb90_20240212","","","3","110"
"7420","0","html-button-response","94","565758","0.0-94.0","60ca93b4fcd7ff11d29bcb90","60ca93b4fcd7ff11d29bcb90_20240212","","","5","59"
"5036","0","html-button-response","95","571298","0.0-95.0","60ca93b4fcd7ff11d29bcb90","60ca93b4fcd7ff11d29bcb90_20240212","","","6","60"
"5123","0","html-button-response","96","576939","0.0-96.0","60ca93b4fcd7ff11d29bcb90","60ca93b4fcd7ff11d29bcb90_20240212","","","5","61"
"2577","0","html-button-response","97","580022","0.0-97.0","60ca93b4fcd7ff11d29bcb90","60ca93b4fcd7ff11d29bcb90_20240212","","","3","17"
"5331","0","html-button-response","98","585857","0.0-98.0","60ca93b4fcd7ff11d29bcb90","60ca93b4fcd7ff11d29bcb90_20240212","","","3","120"
"11246","0","html-button-response","99","597612","0.0-99.0","60ca93b4fcd7ff11d29bcb90","60ca93b4fcd7ff11d29bcb90_20240212","","","5","12"
"5520","0","html-button-response","100","603638","0.0-100.0","60ca93b4fcd7ff11d29bcb90","60ca93b4fcd7ff11d29bcb90_20240212","","","5","3"
"3706","0","html-button-response","101","607854","0.0-101.0","60ca93b4fcd7ff11d29bcb90","60ca93b4fcd7ff11d29bcb90_20240212","","","5","10"
"4357","0","html-button-response","102","612719","0.0-102.0","60ca93b4fcd7ff11d29bcb90","60ca93b4fcd7ff11d29bcb90_20240212","","","6","69"
"6253","0","html-button-response","103","619485","0.0-103.0","60ca93b4fcd7ff11d29bcb90","60ca93b4fcd7ff11d29bcb90_20240212","","","5","2"
"5050","0","html-button-response","104","625039","0.0-104.0","60ca93b4fcd7ff11d29bcb90","60ca93b4fcd7ff11d29bcb90_20240212","","","5","124"
"6145","0","html-button-response","105","631690","0.0-105.0","60ca93b4fcd7ff11d29bcb90","60ca93b4fcd7ff11d29bcb90_20240212","","","3","1"
"4242","0","html-button-response","106","636437","0.0-106.0","60ca93b4fcd7ff11d29bcb90","60ca93b4fcd7ff11d29bcb90_20240212","","","6","70"
"3931","0","html-button-response","107","640883","0.0-107.0","60ca93b4fcd7ff11d29bcb90","60ca93b4fcd7ff11d29bcb90_20240212","","","6","128"
"2964","0","html-button-response","108","644352","0.0-108.0","60ca93b4fcd7ff11d29bcb90","60ca93b4fcd7ff11d29bcb90_20240212","","","5","121"
"11630","0","html-button-response","109","656484","0.0-109.0","60ca93b4fcd7ff11d29bcb90","60ca93b4fcd7ff11d29bcb90_20240212","","","5","116"
"2693","0","html-button-response","110","659682","0.0-110.0","60ca93b4fcd7ff11d29bcb90","60ca93b4fcd7ff11d29bcb90_20240212","","","5","117"
"4331","0","html-button-response","111","664519","0.0-111.0","60ca93b4fcd7ff11d29bcb90","60ca93b4fcd7ff11d29bcb90_20240212","","","8","114"
"2281","0","html-button-response","112","667308","0.0-112.0","60ca93b4fcd7ff11d29bcb90","60ca93b4fcd7ff11d29bcb90_20240212","","","7","7"
"2918","0","html-button-response","113","670736","0.0-113.0","60ca93b4fcd7ff11d29bcb90","60ca93b4fcd7ff11d29bcb90_20240212","","","8","130"
"2821","0","html-button-response","114","674069","0.0-114.0","60ca93b4fcd7ff11d29bcb90","60ca93b4fcd7ff11d29bcb90_20240212","","","8","131"
"2763","0","html-button-response","115","677336","0.0-115.0","60ca93b4fcd7ff11d29bcb90","60ca93b4fcd7ff11d29bcb90_20240212","","","4","9"
"3062","0","html-button-response","116","680902","0.0-116.0","60ca93b4fcd7ff11d29bcb90","60ca93b4fcd7ff11d29bcb90_20240212","","","7","126"
"3333","0","html-button-response","117","684739","0.0-117.0","60ca93b4fcd7ff11d29bcb90","60ca93b4fcd7ff11d29bcb90_20240212","","","4","63"
"2332","0","html-button-response","118","687575","0.0-118.0","60ca93b4fcd7ff11d29bcb90","60ca93b4fcd7ff11d29bcb90_20240212","","","7","123"
"3729","0","html-button-response","119","691813","0.0-119.0","60ca93b4fcd7ff11d29bcb90","60ca93b4fcd7ff11d29bcb90_20240212","","","7","13"
"4064","0","html-button-response","120","696397","0.0-120.0","60ca93b4fcd7ff11d29bcb90","60ca93b4fcd7ff11d29bcb90_20240212","","","8","111"
"2707","0","html-button-response","121","699608","0.0-121.0","60ca93b4fcd7ff11d29bcb90","60ca93b4fcd7ff11d29bcb90_20240212","","","6","5"
"3627","0","html-button-response","122","703749","0.0-122.0","60ca93b4fcd7ff11d29bcb90","60ca93b4fcd7ff11d29bcb90_20240212","","","7","119"
"2695","0","html-button-response","123","706949","0.0-123.0","60ca93b4fcd7ff11d29bcb90","60ca93b4fcd7ff11d29bcb90_20240212","","","7","125"
"4601","0","html-button-response","124","712061","0.0-124.0","60ca93b4fcd7ff11d29bcb90","60ca93b4fcd7ff11d29bcb90_20240212","","","7","4"
"5020","0","html-button-response","125","717589","0.0-125.0","60ca93b4fcd7ff11d29bcb90","60ca93b4fcd7ff11d29bcb90_20240212","","","3","72"
"1210","0","html-button-response","126","719311","0.0-126.0","60ca93b4fcd7ff11d29bcb90","60ca93b4fcd7ff11d29bcb90_20240212","","","",""
"5869","0","html-button-response","127","725691","0.0-127.0","60ca93b4fcd7ff11d29bcb90","60ca93b4fcd7ff11d29bcb90_20240212","","","9","75"
"3025","0","html-button-response","128","729223","0.0-128.0","60ca93b4fcd7ff11d29bcb90","60ca93b4fcd7ff11d29bcb90_20240212","","","9","80"
"3201","0","html-button-response","129","732940","0.0-129.0","60ca93b4fcd7ff11d29bcb90","60ca93b4fcd7ff11d29bcb90_20240212","","","9","89"
"4990","0","html-button-response","130","738444","0.0-130.0","60ca93b4fcd7ff11d29bcb90","60ca93b4fcd7ff11d29bcb90_20240212","","","5","36"
"3027","0","html-button-response","131","741974","0.0-131.0","60ca93b4fcd7ff11d29bcb90","60ca93b4fcd7ff11d29bcb90_20240212","","","6","32"
"2375","0","html-button-response","132","744859","0.0-132.0","60ca93b4fcd7ff11d29bcb90","60ca93b4fcd7ff11d29bcb90_20240212","","","8","141"
"2147","0","html-button-response","133","747520","0.0-133.0","60ca93b4fcd7ff11d29bcb90","60ca93b4fcd7ff11d29bcb90_20240212","","","8","143"
"3178","0","html-button-response","134","751206","0.0-134.0","60ca93b4fcd7ff11d29bcb90","60ca93b4fcd7ff11d29bcb90_20240212","","","8","78"
"2446","0","html-button-response","135","754155","0.0-135.0","60ca93b4fcd7ff11d29bcb90","60ca93b4fcd7ff11d29bcb90_20240212","","","9","79"
"3328","0","html-button-response","136","757993","0.0-136.0","60ca93b4fcd7ff11d29bcb90","60ca93b4fcd7ff11d29bcb90_20240212","","","9","77"
"2252","0","html-button-response","137","760757","0.0-137.0","60ca93b4fcd7ff11d29bcb90","60ca93b4fcd7ff11d29bcb90_20240212","","","8","87"
"2414","0","html-button-response","138","763680","0.0-138.0","60ca93b4fcd7ff11d29bcb90","60ca93b4fcd7ff11d29bcb90_20240212","","","9","86"
"2020","0","html-button-response","139","766204","0.0-139.0","60ca93b4fcd7ff11d29bcb90","60ca93b4fcd7ff11d29bcb90_20240212","","","8","150"
"2412","0","html-button-response","140","769127","0.0-140.0","60ca93b4fcd7ff11d29bcb90","60ca93b4fcd7ff11d29bcb90_20240212","","","6","28"
"2485","0","html-button-response","141","772123","0.0-141.0","60ca93b4fcd7ff11d29bcb90","60ca93b4fcd7ff11d29bcb90_20240212","","","7","81"
"4509","0","html-button-response","142","777146","0.0-142.0","60ca93b4fcd7ff11d29bcb90","60ca93b4fcd7ff11d29bcb90_20240212","","","8","74"
"3022","0","html-button-response","143","780673","0.0-143.0","60ca93b4fcd7ff11d29bcb90","60ca93b4fcd7ff11d29bcb90_20240212","","","4","33"
"2681","0","html-button-response","144","783863","0.0-144.0","60ca93b4fcd7ff11d29bcb90","60ca93b4fcd7ff11d29bcb90_20240212","","","8","88"
"2948","0","html-button-response","145","787320","0.0-145.0","60ca93b4fcd7ff11d29bcb90","60ca93b4fcd7ff11d29bcb90_20240212","","","6","31"
"2275","0","html-button-response","146","790108","0.0-146.0","60ca93b4fcd7ff11d29bcb90","60ca93b4fcd7ff11d29bcb90_20240212","","","7","132"
"2778","0","html-button-response","147","793399","0.0-147.0","60ca93b4fcd7ff11d29bcb90","60ca93b4fcd7ff11d29bcb90_20240212","","","6","27"
"3227","0","html-button-response","148","797134","0.0-148.0","60ca93b4fcd7ff11d29bcb90","60ca93b4fcd7ff11d29bcb90_20240212","","","6","26"
"2122","0","html-button-response","149","799770","0.0-149.0","60ca93b4fcd7ff11d29bcb90","60ca93b4fcd7ff11d29bcb90_20240212","","","5","34"
"1927","0","html-button-response","150","802214","0.0-150.0","60ca93b4fcd7ff11d29bcb90","60ca93b4fcd7ff11d29bcb90_20240212","","","7","76"
"2480","0","html-button-response","151","805202","0.0-151.0","60ca93b4fcd7ff11d29bcb90","60ca93b4fcd7ff11d29bcb90_20240212","","","8","146"
"3013","0","html-button-response","152","808720","0.0-152.0","60ca93b4fcd7ff11d29bcb90","60ca93b4fcd7ff11d29bcb90_20240212","","","7","73"
"2102","0","html-button-response","153","811332","0.0-153.0","60ca93b4fcd7ff11d29bcb90","60ca93b4fcd7ff11d29bcb90_20240212","","","6","23"
"4505","0","html-button-response","154","816342","0.0-154.0","60ca93b4fcd7ff11d29bcb90","60ca93b4fcd7ff11d29bcb90_20240212","","","8","144"
"3002","0","html-button-response","155","819852","0.0-155.0","60ca93b4fcd7ff11d29bcb90","60ca93b4fcd7ff11d29bcb90_20240212","","","8","147"
"2288","0","html-button-response","156","822657","0.0-156.0","60ca93b4fcd7ff11d29bcb90","60ca93b4fcd7ff11d29bcb90_20240212","","","5","35"
"5330","0","html-button-response","157","828497","0.0-157.0","60ca93b4fcd7ff11d29bcb90","60ca93b4fcd7ff11d29bcb90_20240212","","","7","140"
"2662","0","html-button-response","158","831667","0.0-158.0","60ca93b4fcd7ff11d29bcb90","60ca93b4fcd7ff11d29bcb90_20240212","","","8","178"
"2840","0","html-button-response","159","835017","0.0-159.0","60ca93b4fcd7ff11d29bcb90","60ca93b4fcd7ff11d29bcb90_20240212","","","8","142"
"4023","0","html-button-response","160","839551","0.0-160.0","60ca93b4fcd7ff11d29bcb90","60ca93b4fcd7ff11d29bcb90_20240212","","","7","84"
"2751","0","html-button-response","161","842814","0.0-161.0","60ca93b4fcd7ff11d29bcb90","60ca93b4fcd7ff11d29bcb90_20240212","","","6","24"
"2918","0","html-button-response","162","846251","0.0-162.0","60ca93b4fcd7ff11d29bcb90","60ca93b4fcd7ff11d29bcb90_20240212","","","7","29"
"4201","0","html-button-response","163","850955","0.0-163.0","60ca93b4fcd7ff11d29bcb90","60ca93b4fcd7ff11d29bcb90_20240212","","","7","136"
"2461","0","html-button-response","164","853919","0.0-164.0","60ca93b4fcd7ff11d29bcb90","60ca93b4fcd7ff11d29bcb90_20240212","","","5","21"
"2607","0","html-button-response","165","857036","0.0-165.0","60ca93b4fcd7ff11d29bcb90","60ca93b4fcd7ff11d29bcb90_20240212","","","8","82"
"4342","0","html-button-response","166","861885","0.0-166.0","60ca93b4fcd7ff11d29bcb90","60ca93b4fcd7ff11d29bcb90_20240212","","","8","90"
"3124","0","html-button-response","167","865517","0.0-167.0","60ca93b4fcd7ff11d29bcb90","60ca93b4fcd7ff11d29bcb90_20240212","","","8","153"
"2335","0","html-button-response","168","868368","0.0-168.0","60ca93b4fcd7ff11d29bcb90","60ca93b4fcd7ff11d29bcb90_20240212","","","8","85"
"2441","0","html-button-response","169","871317","0.0-169.0","60ca93b4fcd7ff11d29bcb90","60ca93b4fcd7ff11d29bcb90_20240212","","","5","20"
"5175","0","html-button-response","170","877005","0.0-170.0","60ca93b4fcd7ff11d29bcb90","60ca93b4fcd7ff11d29bcb90_20240212","","","7","148"
"2695","0","html-button-response","171","880210","0.0-171.0","60ca93b4fcd7ff11d29bcb90","60ca93b4fcd7ff11d29bcb90_20240212","","","8","180"
"1906","0","html-button-response","172","882624","0.0-172.0","60ca93b4fcd7ff11d29bcb90","60ca93b4fcd7ff11d29bcb90_20240212","","","8","138"
"3144","0","html-button-response","173","886283","0.0-173.0","60ca93b4fcd7ff11d29bcb90","60ca93b4fcd7ff11d29bcb90_20240212","","","8","151"
"4173","0","html-button-response","174","890963","0.0-174.0","60ca93b4fcd7ff11d29bcb90","60ca93b4fcd7ff11d29bcb90_20240212","","","8","133"
"11252","0","html-button-response","175","902725","0.0-175.0","60ca93b4fcd7ff11d29bcb90","60ca93b4fcd7ff11d29bcb90_20240212","","","9","145"
"4023","0","html-button-response","176","907253","0.0-176.0","60ca93b4fcd7ff11d29bcb90","60ca93b4fcd7ff11d29bcb90_20240212","","","5","25"
"2565","0","html-button-response","177","910328","0.0-177.0","60ca93b4fcd7ff11d29bcb90","60ca93b4fcd7ff11d29bcb90_20240212","","","7","152"
"2736","0","html-button-response","178","913576","0.0-178.0","60ca93b4fcd7ff11d29bcb90","60ca93b4fcd7ff11d29bcb90_20240212","","","7","149"
"5778","0","html-button-response","179","919868","0.0-179.0","60ca93b4fcd7ff11d29bcb90","60ca93b4fcd7ff11d29bcb90_20240212","","","7","19"
"17665","0","html-button-response","180","938043","0.0-180.0","60ca93b4fcd7ff11d29bcb90","60ca93b4fcd7ff11d29bcb90_20240212","","","9","83"
"2211","0","html-button-response","181","940767","0.0-181.0","60ca93b4fcd7ff11d29bcb90","60ca93b4fcd7ff11d29bcb90_20240212","","","8","134"
"6849","0","html-button-response","182","948135","0.0-182.0","60ca93b4fcd7ff11d29bcb90","60ca93b4fcd7ff11d29bcb90_20240212","","","8","154"
"3111","0","html-button-response","183","951756","0.0-183.0","60ca93b4fcd7ff11d29bcb90","60ca93b4fcd7ff11d29bcb90_20240212","","","8","139"
"2427","0","html-button-response","184","954691","0.0-184.0","60ca93b4fcd7ff11d29bcb90","60ca93b4fcd7ff11d29bcb90_20240212","","","8","137"
"3677","0","html-button-response","185","958881","0.0-185.0","60ca93b4fcd7ff11d29bcb90","60ca93b4fcd7ff11d29bcb90_20240212","","","7","135"
"2949","0","html-button-response","186","962342","0.0-186.0","60ca93b4fcd7ff11d29bcb90","60ca93b4fcd7ff11d29bcb90_20240212","","","8","179"
"4026","0","html-button-response","187","966877","0.0-187.0","60ca93b4fcd7ff11d29bcb90","60ca93b4fcd7ff11d29bcb90_20240212","","","6","22"
"2493","0","html-button-response","188","969883","0.0-188.0","60ca93b4fcd7ff11d29bcb90","60ca93b4fcd7ff11d29bcb90_20240212","","","6","30"
"2452","0","html-button-response","189","972837","0.0-189.0","60ca93b4fcd7ff11d29bcb90","60ca93b4fcd7ff11d29bcb90_20240212","","Thank you. You have reached the end. 
                       <br>Click the button below to reveal your compensation.
                        <br><br>","",""
