rt,response,trial_type,trial_index,time_elapsed,internal_node_id,part_ID,ID_DATE,screen_id,stimulus,rating,img_id
433899,0,html-button-response,0,434063,0.0-0.0,6581a479f9807ef785856770,6581a479f9807ef785856770_20240212,,,,
11942,[object Object],survey-html-form,1,446512,0.0-1.0,6581a479f9807ef785856770,6581a479f9807ef785856770_20240212,prolific_id_page,,,
59121,0,html-button-response,2,505636,0.0-2.0,6581a479f9807ef785856770,6581a479f9807ef785856770_20240212,,,,
1525,0,html-button-response,3,507664,0.0-3.0,6581a479f9807ef785856770,6581a479f9807ef785856770_20240212,,"
<div>
Great! You will now go on to rate the faces.
<br><br>
</div>
",,
2261,0,html-button-response,4,510427,0.0-4.0,6581a479f9807ef785856770,6581a479f9807ef785856770_20240212,,,9,86
1125,0,html-button-response,5,512054,0.0-5.0,6581a479f9807ef785856770,6581a479f9807ef785856770_20240212,,,7,143
1823,0,html-button-response,6,514379,0.0-6.0,6581a479f9807ef785856770,6581a479f9807ef785856770_20240212,,,8,139
1356,0,html-button-response,7,516237,0.0-7.0,6581a479f9807ef785856770,6581a479f9807ef785856770_20240212,,,8,87
1427,0,html-button-response,8,518167,0.0-8.0,6581a479f9807ef785856770,6581a479f9807ef785856770_20240212,,,8,89
1191,0,html-button-response,9,519860,0.0-9.0,6581a479f9807ef785856770,6581a479f9807ef785856770_20240212,,,8,134
7033,0,html-button-response,10,527395,0.0-10.0,6581a479f9807ef785856770,6581a479f9807ef785856770_20240212,,,9,80
21648,0,html-button-response,11,549547,0.0-11.0,6581a479f9807ef785856770,6581a479f9807ef785856770_20240212,,,8,88
44224,0,html-button-response,12,594274,0.0-12.0,6581a479f9807ef785856770,6581a479f9807ef785856770_20240212,,,9,23
1372,0,html-button-response,13,596147,0.0-13.0,6581a479f9807ef785856770,6581a479f9807ef785856770_20240212,,,8,179
1003,0,html-button-response,14,597652,0.0-14.0,6581a479f9807ef785856770,6581a479f9807ef785856770_20240212,,,7,136
1265,0,html-button-response,15,599419,0.0-15.0,6581a479f9807ef785856770,6581a479f9807ef785856770_20240212,,,9,30
12264,0,html-button-response,16,612187,0.0-16.0,6581a479f9807ef785856770,6581a479f9807ef785856770_20240212,,,4,34
5420,0,html-button-response,17,618110,0.0-17.0,6581a479f9807ef785856770,6581a479f9807ef785856770_20240212,,,8,178
3913,0,html-button-response,18,622525,0.0-18.0,6581a479f9807ef785856770,6581a479f9807ef785856770_20240212,,,2,28
3197,0,html-button-response,19,626225,0.0-19.0,6581a479f9807ef785856770,6581a479f9807ef785856770_20240212,,,1,36
2321,0,html-button-response,20,629048,0.0-20.0,6581a479f9807ef785856770,6581a479f9807ef785856770_20240212,,,9,77
4764,0,html-button-response,21,634314,0.0-21.0,6581a479f9807ef785856770,6581a479f9807ef785856770_20240212,,,1,33
4661,0,html-button-response,22,639478,0.0-22.0,6581a479f9807ef785856770,6581a479f9807ef785856770_20240212,,,7,81
1641,0,html-button-response,23,641620,0.0-23.0,6581a479f9807ef785856770,6581a479f9807ef785856770_20240212,,,8,133
2173,0,html-button-response,24,644295,0.0-24.0,6581a479f9807ef785856770,6581a479f9807ef785856770_20240212,,,2,35
86501,0,html-button-response,25,731300,0.0-25.0,6581a479f9807ef785856770,6581a479f9807ef785856770_20240212,,,8,74
3186,0,html-button-response,26,734988,0.0-26.0,6581a479f9807ef785856770,6581a479f9807ef785856770_20240212,,,9,79
2836,0,html-button-response,27,738326,0.0-27.0,6581a479f9807ef785856770,6581a479f9807ef785856770_20240212,,,7,84
3211,0,html-button-response,28,742039,0.0-28.0,6581a479f9807ef785856770,6581a479f9807ef785856770_20240212,,,1,26
2997,0,html-button-response,29,745538,0.0-29.0,6581a479f9807ef785856770,6581a479f9807ef785856770_20240212,,,8,147
3499,0,html-button-response,30,749539,0.0-30.0,6581a479f9807ef785856770,6581a479f9807ef785856770_20240212,,,8,149
2810,0,html-button-response,31,752852,0.0-31.0,6581a479f9807ef785856770,6581a479f9807ef785856770_20240212,,,1,27
7816,0,html-button-response,32,761171,0.0-32.0,6581a479f9807ef785856770,6581a479f9807ef785856770_20240212,,,8,154
99147,0,html-button-response,33,860821,0.0-33.0,6581a479f9807ef785856770,6581a479f9807ef785856770_20240212,,,8,137
2538,0,html-button-response,34,863862,0.0-34.0,6581a479f9807ef785856770,6581a479f9807ef785856770_20240212,,,8,146
10209,0,html-button-response,35,874573,0.0-35.0,6581a479f9807ef785856770,6581a479f9807ef785856770_20240212,,,1,20
16138,0,html-button-response,36,891214,0.0-36.0,6581a479f9807ef785856770,6581a479f9807ef785856770_20240212,,,9,151
17875,0,html-button-response,37,909592,0.0-37.0,6581a479f9807ef785856770,6581a479f9807ef785856770_20240212,,,9,83
3480,0,html-button-response,38,913574,0.0-38.0,6581a479f9807ef785856770,6581a479f9807ef785856770_20240212,,,1,25
21582,0,html-button-response,39,935659,0.0-39.0,6581a479f9807ef785856770,6581a479f9807ef785856770_20240212,,,9,141
7424,0,html-button-response,40,943586,0.0-40.0,6581a479f9807ef785856770,6581a479f9807ef785856770_20240212,,,8,148
21168,0,html-button-response,41,965257,0.0-41.0,6581a479f9807ef785856770,6581a479f9807ef785856770_20240212,,,1,22
2721,0,html-button-response,42,968480,0.0-42.0,6581a479f9807ef785856770,6581a479f9807ef785856770_20240212,,,8,140
15471,0,html-button-response,43,984454,0.0-43.0,6581a479f9807ef785856770,6581a479f9807ef785856770_20240212,,,9,150
4003,0,html-button-response,44,988961,0.0-44.0,6581a479f9807ef785856770,6581a479f9807ef785856770_20240212,,,9,142
8850,0,html-button-response,45,998313,0.0-45.0,6581a479f9807ef785856770,6581a479f9807ef785856770_20240212,,,9,138
5085,0,html-button-response,46,1003900,0.0-46.0,6581a479f9807ef785856770,6581a479f9807ef785856770_20240212,,,9,144
2999,0,html-button-response,47,1007401,0.0-47.0,6581a479f9807ef785856770,6581a479f9807ef785856770_20240212,,,9,73
16240,0,html-button-response,48,1024142,0.0-48.0,6581a479f9807ef785856770,6581a479f9807ef785856770_20240212,,,9,82
12234,0,html-button-response,49,1036880,0.0-49.0,6581a479f9807ef785856770,6581a479f9807ef785856770_20240212,,,9,145
2696,0,html-button-response,50,1040079,0.0-50.0,6581a479f9807ef785856770,6581a479f9807ef785856770_20240212,,,9,132
1937,0,html-button-response,51,1042518,0.0-51.0,6581a479f9807ef785856770,6581a479f9807ef785856770_20240212,,,1,32
6408,0,html-button-response,52,1049429,0.0-52.0,6581a479f9807ef785856770,6581a479f9807ef785856770_20240212,,,1,31
4369,0,html-button-response,53,1054301,0.0-53.0,6581a479f9807ef785856770,6581a479f9807ef785856770_20240212,,,9,153
26054,0,html-button-response,54,1080858,0.0-54.0,6581a479f9807ef785856770,6581a479f9807ef785856770_20240212,,,8,21
6168,0,html-button-response,55,1087529,0.0-55.0,6581a479f9807ef785856770,6581a479f9807ef785856770_20240212,,,9,76
3956,0,html-button-response,56,1091987,0.0-56.0,6581a479f9807ef785856770,6581a479f9807ef785856770_20240212,,,9,90
3342,0,html-button-response,57,1095832,0.0-57.0,6581a479f9807ef785856770,6581a479f9807ef785856770_20240212,,,1,29
2204,0,html-button-response,58,1098538,0.0-58.0,6581a479f9807ef785856770,6581a479f9807ef785856770_20240212,,,9,24
3245,0,html-button-response,59,1102286,0.0-59.0,6581a479f9807ef785856770,6581a479f9807ef785856770_20240212,,,9,180
33630,0,html-button-response,60,1136420,0.0-60.0,6581a479f9807ef785856770,6581a479f9807ef785856770_20240212,,,8,135
2941,0,html-button-response,61,1139864,0.0-61.0,6581a479f9807ef785856770,6581a479f9807ef785856770_20240212,,,9,152
2083,0,html-button-response,62,1142449,0.0-62.0,6581a479f9807ef785856770,6581a479f9807ef785856770_20240212,,,9,78
2515,0,html-button-response,63,1145468,0.0-63.0,6581a479f9807ef785856770,6581a479f9807ef785856770_20240212,,,9,75
1934,0,html-button-response,64,1147905,0.0-64.0,6581a479f9807ef785856770,6581a479f9807ef785856770_20240212,,,9,85
3203,0,html-button-response,65,1151611,0.0-65.0,6581a479f9807ef785856770,6581a479f9807ef785856770_20240212,,,1,19
3902,0,html-button-response,66,1156016,0.0-66.0,6581a479f9807ef785856770,6581a479f9807ef785856770_20240212,,,,
2417,0,html-button-response,67,1158936,0.0-67.0,6581a479f9807ef785856770,6581a479f9807ef785856770_20240212,,,1,161
2883,0,html-button-response,68,1162322,0.0-68.0,6581a479f9807ef785856770,6581a479f9807ef785856770_20240212,,,1,39
2343,0,html-button-response,69,1165168,0.0-69.0,6581a479f9807ef785856770,6581a479f9807ef785856770_20240212,,,1,98
4891,0,html-button-response,70,1170562,0.0-70.0,6581a479f9807ef785856770,6581a479f9807ef785856770_20240212,,,1,170
3228,0,html-button-response,71,1174292,0.0-71.0,6581a479f9807ef785856770,6581a479f9807ef785856770_20240212,,,1,42
3399,0,html-button-response,72,1178194,0.0-72.0,6581a479f9807ef785856770,6581a479f9807ef785856770_20240212,,,1,44
6860,0,html-button-response,73,1185557,0.0-73.0,6581a479f9807ef785856770,6581a479f9807ef785856770_20240212,,,1,165
12386,0,html-button-response,74,1198446,0.0-74.0,6581a479f9807ef785856770,6581a479f9807ef785856770_20240212,,,1,45
2940,0,html-button-response,75,1201888,0.0-75.0,6581a479f9807ef785856770,6581a479f9807ef785856770_20240212,,,1,107
2934,0,html-button-response,76,1205324,0.0-76.0,6581a479f9807ef785856770,6581a479f9807ef785856770_20240212,,,1,96
2475,0,html-button-response,77,1208301,0.0-77.0,6581a479f9807ef785856770,6581a479f9807ef785856770_20240212,,,1,167
3702,0,html-button-response,78,1212505,0.0-78.0,6581a479f9807ef785856770,6581a479f9807ef785856770_20240212,,,1,175
9107,0,html-button-response,79,1222114,0.0-79.0,6581a479f9807ef785856770,6581a479f9807ef785856770_20240212,,,1,106
10629,0,html-button-response,80,1233246,0.0-80.0,6581a479f9807ef785856770,6581a479f9807ef785856770_20240212,,,1,177
3496,0,html-button-response,81,1237246,0.0-81.0,6581a479f9807ef785856770,6581a479f9807ef785856770_20240212,,,1,158
3304,0,html-button-response,82,1241051,0.0-82.0,6581a479f9807ef785856770,6581a479f9807ef785856770_20240212,,,1,102
2941,0,html-button-response,83,1244495,0.0-83.0,6581a479f9807ef785856770,6581a479f9807ef785856770_20240212,,,1,50
4854,0,html-button-response,84,1249851,0.0-84.0,6581a479f9807ef785856770,6581a479f9807ef785856770_20240212,,,1,108
2967,0,html-button-response,85,1253321,0.0-85.0,6581a479f9807ef785856770,6581a479f9807ef785856770_20240212,,,1,43
2385,0,html-button-response,86,1256208,0.0-86.0,6581a479f9807ef785856770,6581a479f9807ef785856770_20240212,,,1,174
2598,0,html-button-response,87,1259309,0.0-87.0,6581a479f9807ef785856770,6581a479f9807ef785856770_20240212,,,1,92
2326,0,html-button-response,88,1262139,0.0-88.0,6581a479f9807ef785856770,6581a479f9807ef785856770_20240212,,,1,169
2480,0,html-button-response,89,1265122,0.0-89.0,6581a479f9807ef785856770,6581a479f9807ef785856770_20240212,,,1,166
2786,0,html-button-response,90,1268411,0.0-90.0,6581a479f9807ef785856770,6581a479f9807ef785856770_20240212,,,1,95
30172,0,html-button-response,91,1299092,0.0-91.0,6581a479f9807ef785856770,6581a479f9807ef785856770_20240212,,,1,183
3539,0,html-button-response,92,1303133,0.0-92.0,6581a479f9807ef785856770,6581a479f9807ef785856770_20240212,,,1,171
1871,0,html-button-response,93,1305508,0.0-93.0,6581a479f9807ef785856770,6581a479f9807ef785856770_20240212,,,1,101
2655,0,html-button-response,94,1308666,0.0-94.0,6581a479f9807ef785856770,6581a479f9807ef785856770_20240212,,,1,54
2123,0,html-button-response,95,1311292,0.0-95.0,6581a479f9807ef785856770,6581a479f9807ef785856770_20240212,,,1,53
1674,0,html-button-response,96,1313468,0.0-96.0,6581a479f9807ef785856770,6581a479f9807ef785856770_20240212,,,1,162
1707,0,html-button-response,97,1315677,0.0-97.0,6581a479f9807ef785856770,6581a479f9807ef785856770_20240212,,,1,157
1698,0,html-button-response,98,1317877,0.0-98.0,6581a479f9807ef785856770,6581a479f9807ef785856770_20240212,,,1,172
1886,0,html-button-response,99,1320266,0.0-99.0,6581a479f9807ef785856770,6581a479f9807ef785856770_20240212,,,1,41
2211,0,html-button-response,100,1322980,0.0-100.0,6581a479f9807ef785856770,6581a479f9807ef785856770_20240212,,,1,94
2533,0,html-button-response,101,1326017,0.0-101.0,6581a479f9807ef785856770,6581a479f9807ef785856770_20240212,,,1,155
2885,0,html-button-response,102,1329404,0.0-102.0,6581a479f9807ef785856770,6581a479f9807ef785856770_20240212,,,1,104
2487,0,html-button-response,103,1332394,0.0-103.0,6581a479f9807ef785856770,6581a479f9807ef785856770_20240212,,,1,164
2975,0,html-button-response,104,1335871,0.0-104.0,6581a479f9807ef785856770,6581a479f9807ef785856770_20240212,,,1,99
6128,0,html-button-response,105,1342501,0.0-105.0,6581a479f9807ef785856770,6581a479f9807ef785856770_20240212,,,1,182
2442,0,html-button-response,106,1345446,0.0-106.0,6581a479f9807ef785856770,6581a479f9807ef785856770_20240212,,,1,49
1854,0,html-button-response,107,1347802,0.0-107.0,6581a479f9807ef785856770,6581a479f9807ef785856770_20240212,,,1,38
4168,0,html-button-response,108,1352473,0.0-108.0,6581a479f9807ef785856770,6581a479f9807ef785856770_20240212,,,1,181
5520,0,html-button-response,109,1358496,0.0-109.0,6581a479f9807ef785856770,6581a479f9807ef785856770_20240212,,,1,163
2354,0,html-button-response,110,1361352,0.0-110.0,6581a479f9807ef785856770,6581a479f9807ef785856770_20240212,,,1,176
2582,0,html-button-response,111,1364436,0.0-111.0,6581a479f9807ef785856770,6581a479f9807ef785856770_20240212,,,1,47
1573,0,html-button-response,112,1366512,0.0-112.0,6581a479f9807ef785856770,6581a479f9807ef785856770_20240212,,,1,51
937,0,html-button-response,113,1367952,0.0-113.0,6581a479f9807ef785856770,6581a479f9807ef785856770_20240212,,,1,91
1566,0,html-button-response,114,1370021,0.0-114.0,6581a479f9807ef785856770,6581a479f9807ef785856770_20240212,,,1,40
1937,0,html-button-response,115,1372461,0.0-115.0,6581a479f9807ef785856770,6581a479f9807ef785856770_20240212,,,1,103
1010,0,html-button-response,116,1373974,0.0-116.0,6581a479f9807ef785856770,6581a479f9807ef785856770_20240212,,,1,97
1265,0,html-button-response,117,1375741,0.0-117.0,6581a479f9807ef785856770,6581a479f9807ef785856770_20240212,,,1,160
1387,0,html-button-response,118,1377631,0.0-118.0,6581a479f9807ef785856770,6581a479f9807ef785856770_20240212,,,1,52
1272,0,html-button-response,119,1379406,0.0-119.0,6581a479f9807ef785856770,6581a479f9807ef785856770_20240212,,,1,173
1092,0,html-button-response,120,1380999,0.0-120.0,6581a479f9807ef785856770,6581a479f9807ef785856770_20240212,,,1,48
1176,0,html-button-response,121,1382677,0.0-121.0,6581a479f9807ef785856770,6581a479f9807ef785856770_20240212,,,1,168
1500,0,html-button-response,122,1384680,0.0-122.0,6581a479f9807ef785856770,6581a479f9807ef785856770_20240212,,,1,156
1741,0,html-button-response,123,1386922,0.0-123.0,6581a479f9807ef785856770,6581a479f9807ef785856770_20240212,,,1,100
1429,0,html-button-response,124,1388853,0.0-124.0,6581a479f9807ef785856770,6581a479f9807ef785856770_20240212,,,1,37
1829,0,html-button-response,125,1391184,0.0-125.0,6581a479f9807ef785856770,6581a479f9807ef785856770_20240212,,,1,159
1453,0,html-button-response,126,1393140,0.0-126.0,6581a479f9807ef785856770,6581a479f9807ef785856770_20240212,,,1,105
2614,0,html-button-response,127,1396256,0.0-127.0,6581a479f9807ef785856770,6581a479f9807ef785856770_20240212,,,1,46
2132,0,html-button-response,128,1398891,0.0-128.0,6581a479f9807ef785856770,6581a479f9807ef785856770_20240212,,,1,93
2300,0,html-button-response,129,1401693,0.0-129.0,6581a479f9807ef785856770,6581a479f9807ef785856770_20240212,,,,
3762,0,html-button-response,130,1405957,0.0-130.0,6581a479f9807ef785856770,6581a479f9807ef785856770_20240212,,,5,71
1313,0,html-button-response,131,1407774,0.0-131.0,6581a479f9807ef785856770,6581a479f9807ef785856770_20240212,,,5,69
2785,0,html-button-response,132,1411061,0.0-132.0,6581a479f9807ef785856770,6581a479f9807ef785856770_20240212,,,4,14
2271,0,html-button-response,133,1413835,0.0-133.0,6581a479f9807ef785856770,6581a479f9807ef785856770_20240212,,,4,6
1633,0,html-button-response,134,1415970,0.0-134.0,6581a479f9807ef785856770,6581a479f9807ef785856770_20240212,,,4,16
1737,0,html-button-response,135,1418210,0.0-135.0,6581a479f9807ef785856770,6581a479f9807ef785856770_20240212,,,3,58
1724,0,html-button-response,136,1420437,0.0-136.0,6581a479f9807ef785856770,6581a479f9807ef785856770_20240212,,,4,117
1470,0,html-button-response,137,1422408,0.0-137.0,6581a479f9807ef785856770,6581a479f9807ef785856770_20240212,,,4,64
2056,0,html-button-response,138,1424966,0.0-138.0,6581a479f9807ef785856770,6581a479f9807ef785856770_20240212,,,4,121
1379,0,html-button-response,139,1426848,0.0-139.0,6581a479f9807ef785856770,6581a479f9807ef785856770_20240212,,,3,115
1355,0,html-button-response,140,1428705,0.0-140.0,6581a479f9807ef785856770,6581a479f9807ef785856770_20240212,,,6,5
1054,0,html-button-response,141,1430261,0.0-141.0,6581a479f9807ef785856770,6581a479f9807ef785856770_20240212,,,5,59
1060,0,html-button-response,142,1431824,0.0-142.0,6581a479f9807ef785856770,6581a479f9807ef785856770_20240212,,,5,67
1256,0,html-button-response,143,1433582,0.0-143.0,6581a479f9807ef785856770,6581a479f9807ef785856770_20240212,,,4,129
1256,0,html-button-response,144,1435340,0.0-144.0,6581a479f9807ef785856770,6581a479f9807ef785856770_20240212,,,5,3
2018,0,html-button-response,145,1437861,0.0-145.0,6581a479f9807ef785856770,6581a479f9807ef785856770_20240212,,,4,12
954,0,html-button-response,146,1439317,0.0-146.0,6581a479f9807ef785856770,6581a479f9807ef785856770_20240212,,,5,68
2891,0,html-button-response,147,1442710,0.0-147.0,6581a479f9807ef785856770,6581a479f9807ef785856770_20240212,,,6,60
2427,0,html-button-response,148,1445640,0.0-148.0,6581a479f9807ef785856770,6581a479f9807ef785856770_20240212,,,6,127
1648,0,html-button-response,149,1447791,0.0-149.0,6581a479f9807ef785856770,6581a479f9807ef785856770_20240212,,,6,56
2203,0,html-button-response,150,1450497,0.0-150.0,6581a479f9807ef785856770,6581a479f9807ef785856770_20240212,,,4,131
1439,0,html-button-response,151,1452438,0.0-151.0,6581a479f9807ef785856770,6581a479f9807ef785856770_20240212,,,4,111
1656,0,html-button-response,152,1454597,0.0-152.0,6581a479f9807ef785856770,6581a479f9807ef785856770_20240212,,,4,72
1336,0,html-button-response,153,1456436,0.0-153.0,6581a479f9807ef785856770,6581a479f9807ef785856770_20240212,,,6,128
1880,0,html-button-response,154,1458818,0.0-154.0,6581a479f9807ef785856770,6581a479f9807ef785856770_20240212,,,5,10
2359,0,html-button-response,155,1461680,0.0-155.0,6581a479f9807ef785856770,6581a479f9807ef785856770_20240212,,,4,55
2836,0,html-button-response,156,1465019,0.0-156.0,6581a479f9807ef785856770,6581a479f9807ef785856770_20240212,,,3,116
3751,0,html-button-response,157,1469272,0.0-157.0,6581a479f9807ef785856770,6581a479f9807ef785856770_20240212,,,3,70
8260,0,html-button-response,158,1478035,0.0-158.0,6581a479f9807ef785856770,6581a479f9807ef785856770_20240212,,,3,112
2540,0,html-button-response,159,1481078,0.0-159.0,6581a479f9807ef785856770,6581a479f9807ef785856770_20240212,,,3,11
1591,0,html-button-response,160,1483172,0.0-160.0,6581a479f9807ef785856770,6581a479f9807ef785856770_20240212,,,6,1
1728,0,html-button-response,161,1485403,0.0-161.0,6581a479f9807ef785856770,6581a479f9807ef785856770_20240212,,,3,15
1413,0,html-button-response,162,1487318,0.0-162.0,6581a479f9807ef785856770,6581a479f9807ef785856770_20240212,,,5,124
1021,0,html-button-response,163,1488842,0.0-163.0,6581a479f9807ef785856770,6581a479f9807ef785856770_20240212,,,4,118
1788,0,html-button-response,164,1491131,0.0-164.0,6581a479f9807ef785856770,6581a479f9807ef785856770_20240212,,,6,113
1801,0,html-button-response,165,1493435,0.0-165.0,6581a479f9807ef785856770,6581a479f9807ef785856770_20240212,,,3,110
1781,0,html-button-response,166,1495719,0.0-166.0,6581a479f9807ef785856770,6581a479f9807ef785856770_20240212,,,3,13
1920,0,html-button-response,167,1498142,0.0-167.0,6581a479f9807ef785856770,6581a479f9807ef785856770_20240212,,,4,130
1409,0,html-button-response,168,1500054,0.0-168.0,6581a479f9807ef785856770,6581a479f9807ef785856770_20240212,,,4,17
6682,0,html-button-response,169,1507239,0.0-169.0,6581a479f9807ef785856770,6581a479f9807ef785856770_20240212,,,4,125
1476,0,html-button-response,170,1509218,0.0-170.0,6581a479f9807ef785856770,6581a479f9807ef785856770_20240212,,,4,65
3867,0,html-button-response,171,1513587,0.0-171.0,6581a479f9807ef785856770,6581a479f9807ef785856770_20240212,,,4,122
1364,0,html-button-response,172,1515454,0.0-172.0,6581a479f9807ef785856770,6581a479f9807ef785856770_20240212,,,3,57
5095,0,html-button-response,173,1521052,0.0-173.0,6581a479f9807ef785856770,6581a479f9807ef785856770_20240212,,,4,61
6496,0,html-button-response,174,1528051,0.0-174.0,6581a479f9807ef785856770,6581a479f9807ef785856770_20240212,,,4,2
1888,0,html-button-response,175,1530442,0.0-175.0,6581a479f9807ef785856770,6581a479f9807ef785856770_20240212,,,3,119
1754,0,html-button-response,176,1532698,0.0-176.0,6581a479f9807ef785856770,6581a479f9807ef785856770_20240212,,,4,126
1748,0,html-button-response,177,1534949,0.0-177.0,6581a479f9807ef785856770,6581a479f9807ef785856770_20240212,,,4,114
2408,0,html-button-response,178,1537859,0.0-178.0,6581a479f9807ef785856770,6581a479f9807ef785856770_20240212,,,4,62
2583,0,html-button-response,179,1540945,0.0-179.0,6581a479f9807ef785856770,6581a479f9807ef785856770_20240212,,,3,123
2107,0,html-button-response,180,1543554,0.0-180.0,6581a479f9807ef785856770,6581a479f9807ef785856770_20240212,,,3,4
1845,0,html-button-response,181,1545902,0.0-181.0,6581a479f9807ef785856770,6581a479f9807ef785856770_20240212,,,4,18
1601,0,html-button-response,182,1548005,0.0-182.0,6581a479f9807ef785856770,6581a479f9807ef785856770_20240212,,,3,8
1150,0,html-button-response,183,1549657,0.0-183.0,6581a479f9807ef785856770,6581a479f9807ef785856770_20240212,,,5,109
1207,0,html-button-response,184,1551366,0.0-184.0,6581a479f9807ef785856770,6581a479f9807ef785856770_20240212,,,4,66
2132,0,html-button-response,185,1554001,0.0-185.0,6581a479f9807ef785856770,6581a479f9807ef785856770_20240212,,,5,9
1549,0,html-button-response,186,1556052,0.0-186.0,6581a479f9807ef785856770,6581a479f9807ef785856770_20240212,,,4,7
2141,0,html-button-response,187,1558696,0.0-187.0,6581a479f9807ef785856770,6581a479f9807ef785856770_20240212,,,4,120
1551,0,html-button-response,188,1560750,0.0-188.0,6581a479f9807ef785856770,6581a479f9807ef785856770_20240212,,,4,63
1207,0,html-button-response,189,1562460,0.0-189.0,6581a479f9807ef785856770,6581a479f9807ef785856770_20240212,,"Thank you. You have reached the end. 
                       <br>Click the button below to reveal your compensation.
                        <br><br>",,