"rt","response","trial_type","trial_index","time_elapsed","internal_node_id","part_ID","ID_DATE","screen_id","stimulus","rating","img_id"
"9348","0","html-button-response","0","9350","0.0-0.0","63b88b7855864805bec51ddc","63b88b7855864805bec51ddc_20240212","","","",""
"8355","[object Object]","survey-html-form","1","18213","0.0-1.0","63b88b7855864805bec51ddc","63b88b7855864805bec51ddc_20240212","prolific_id_page","","",""
"9028","0","html-button-response","2","27242","0.0-2.0","63b88b7855864805bec51ddc","63b88b7855864805bec51ddc_20240212","","","",""
"10852","0","html-button-response","3","38599","0.0-3.0","63b88b7855864805bec51ddc","63b88b7855864805bec51ddc_20240212","","
<div>
Great! You will now go on to rate the faces.
<br><br>
</div>
","",""
"3009","0","html-button-response","4","42115","0.0-4.0","63b88b7855864805bec51ddc","63b88b7855864805bec51ddc_20240212","","","8","75"
"2013","0","html-button-response","5","44647","0.0-5.0","63b88b7855864805bec51ddc","63b88b7855864805bec51ddc_20240212","","","8","138"
"2056","0","html-button-response","6","47211","0.0-6.0","63b88b7855864805bec51ddc","63b88b7855864805bec51ddc_20240212","","","7","137"
"3147","0","html-button-response","7","50870","0.0-7.0","63b88b7855864805bec51ddc","63b88b7855864805bec51ddc_20240212","","","5","36"
"2381","0","html-button-response","8","53768","0.0-8.0","63b88b7855864805bec51ddc","63b88b7855864805bec51ddc_20240212","","","4","20"
"4719","0","html-button-response","9","58999","0.0-9.0","63b88b7855864805bec51ddc","63b88b7855864805bec51ddc_20240212","","","8","149"
"2391","0","html-button-response","10","61893","0.0-10.0","63b88b7855864805bec51ddc","63b88b7855864805bec51ddc_20240212","","","4","19"
"3738","0","html-button-response","11","66145","0.0-11.0","63b88b7855864805bec51ddc","63b88b7855864805bec51ddc_20240212","","","6","22"
"2289","0","html-button-response","12","68943","0.0-12.0","63b88b7855864805bec51ddc","63b88b7855864805bec51ddc_20240212","","","9","89"
"2836","0","html-button-response","13","72292","0.0-13.0","63b88b7855864805bec51ddc","63b88b7855864805bec51ddc_20240212","","","8","133"
"1561","0","html-button-response","14","74368","0.0-14.0","63b88b7855864805bec51ddc","63b88b7855864805bec51ddc_20240212","","","8","141"
"1940","0","html-button-response","15","76817","0.0-15.0","63b88b7855864805bec51ddc","63b88b7855864805bec51ddc_20240212","","","3","25"
"3106","0","html-button-response","16","80427","0.0-16.0","63b88b7855864805bec51ddc","63b88b7855864805bec51ddc_20240212","","","8","150"
"5578","0","html-button-response","17","86516","0.0-17.0","63b88b7855864805bec51ddc","63b88b7855864805bec51ddc_20240212","","","8","143"
"3369","0","html-button-response","18","90390","0.0-18.0","63b88b7855864805bec51ddc","63b88b7855864805bec51ddc_20240212","","","6","28"
"3477","0","html-button-response","19","94370","0.0-19.0","63b88b7855864805bec51ddc","63b88b7855864805bec51ddc_20240212","","","9","77"
"1766","0","html-button-response","20","96639","0.0-20.0","63b88b7855864805bec51ddc","63b88b7855864805bec51ddc_20240212","","","8","76"
"1726","0","html-button-response","21","98878","0.0-21.0","63b88b7855864805bec51ddc","63b88b7855864805bec51ddc_20240212","","","8","139"
"1744","0","html-button-response","22","101125","0.0-22.0","63b88b7855864805bec51ddc","63b88b7855864805bec51ddc_20240212","","","8","144"
"1659","0","html-button-response","23","103294","0.0-23.0","63b88b7855864805bec51ddc","63b88b7855864805bec51ddc_20240212","","","9","84"
"1940","0","html-button-response","24","105749","0.0-24.0","63b88b7855864805bec51ddc","63b88b7855864805bec51ddc_20240212","","","9","80"
"5025","0","html-button-response","25","111279","0.0-25.0","63b88b7855864805bec51ddc","63b88b7855864805bec51ddc_20240212","","","8","83"
"5127","0","html-button-response","26","116918","0.0-26.0","63b88b7855864805bec51ddc","63b88b7855864805bec51ddc_20240212","","","7","178"
"3832","0","html-button-response","27","121255","0.0-27.0","63b88b7855864805bec51ddc","63b88b7855864805bec51ddc_20240212","","","7","154"
"2092","0","html-button-response","28","123852","0.0-28.0","63b88b7855864805bec51ddc","63b88b7855864805bec51ddc_20240212","","","8","142"
"1394","0","html-button-response","29","125750","0.0-29.0","63b88b7855864805bec51ddc","63b88b7855864805bec51ddc_20240212","","","8","74"
"3207","0","html-button-response","30","129464","0.0-30.0","63b88b7855864805bec51ddc","63b88b7855864805bec51ddc_20240212","","","6","29"
"3889","0","html-button-response","31","133869","0.0-31.0","63b88b7855864805bec51ddc","63b88b7855864805bec51ddc_20240212","","","6","33"
"4072","0","html-button-response","32","138446","0.0-32.0","63b88b7855864805bec51ddc","63b88b7855864805bec51ddc_20240212","","","9","86"
"1913","0","html-button-response","33","140869","0.0-33.0","63b88b7855864805bec51ddc","63b88b7855864805bec51ddc_20240212","","","8","82"
"6450","0","html-button-response","34","147822","0.0-34.0","63b88b7855864805bec51ddc","63b88b7855864805bec51ddc_20240212","","","8","85"
"4468","0","html-button-response","35","152798","0.0-35.0","63b88b7855864805bec51ddc","63b88b7855864805bec51ddc_20240212","","","7","179"
"1560","0","html-button-response","36","154865","0.0-36.0","63b88b7855864805bec51ddc","63b88b7855864805bec51ddc_20240212","","","8","81"
"2590","0","html-button-response","37","157964","0.0-37.0","63b88b7855864805bec51ddc","63b88b7855864805bec51ddc_20240212","","","8","148"
"3172","0","html-button-response","38","161645","0.0-38.0","63b88b7855864805bec51ddc","63b88b7855864805bec51ddc_20240212","","","6","32"
"4122","0","html-button-response","39","166275","0.0-39.0","63b88b7855864805bec51ddc","63b88b7855864805bec51ddc_20240212","","","9","88"
"4125","0","html-button-response","40","170910","0.0-40.0","63b88b7855864805bec51ddc","63b88b7855864805bec51ddc_20240212","","","3","34"
"3751","0","html-button-response","41","175178","0.0-41.0","63b88b7855864805bec51ddc","63b88b7855864805bec51ddc_20240212","","","6","23"
"2605","0","html-button-response","42","178297","0.0-42.0","63b88b7855864805bec51ddc","63b88b7855864805bec51ddc_20240212","","","5","24"
"1938","0","html-button-response","43","180737","0.0-43.0","63b88b7855864805bec51ddc","63b88b7855864805bec51ddc_20240212","","","8","135"
"3151","0","html-button-response","44","184402","0.0-44.0","63b88b7855864805bec51ddc","63b88b7855864805bec51ddc_20240212","","","6","31"
"2426","0","html-button-response","45","187332","0.0-45.0","63b88b7855864805bec51ddc","63b88b7855864805bec51ddc_20240212","","","7","134"
"1959","0","html-button-response","46","189801","0.0-46.0","63b88b7855864805bec51ddc","63b88b7855864805bec51ddc_20240212","","","6","30"
"1836","0","html-button-response","47","192141","0.0-47.0","63b88b7855864805bec51ddc","63b88b7855864805bec51ddc_20240212","","","8","90"
"1522","0","html-button-response","48","194177","0.0-48.0","63b88b7855864805bec51ddc","63b88b7855864805bec51ddc_20240212","","","8","132"
"1238","0","html-button-response","49","195925","0.0-49.0","63b88b7855864805bec51ddc","63b88b7855864805bec51ddc_20240212","","","8","140"
"1224","0","html-button-response","50","197663","0.0-50.0","63b88b7855864805bec51ddc","63b88b7855864805bec51ddc_20240212","","","8","136"
"1933","0","html-button-response","51","200104","0.0-51.0","63b88b7855864805bec51ddc","63b88b7855864805bec51ddc_20240212","","","6","21"
"2471","0","html-button-response","52","203092","0.0-52.0","63b88b7855864805bec51ddc","63b88b7855864805bec51ddc_20240212","","","7","151"
"3302","0","html-button-response","53","206907","0.0-53.0","63b88b7855864805bec51ddc","63b88b7855864805bec51ddc_20240212","","","8","180"
"2030","0","html-button-response","54","209454","0.0-54.0","63b88b7855864805bec51ddc","63b88b7855864805bec51ddc_20240212","","","8","73"
"6107","0","html-button-response","55","216063","0.0-55.0","63b88b7855864805bec51ddc","63b88b7855864805bec51ddc_20240212","","","7","79"
"5232","0","html-button-response","56","221798","0.0-56.0","63b88b7855864805bec51ddc","63b88b7855864805bec51ddc_20240212","","","5","26"
"1883","0","html-button-response","57","224190","0.0-57.0","63b88b7855864805bec51ddc","63b88b7855864805bec51ddc_20240212","","","7","146"
"2212","0","html-button-response","58","226909","0.0-58.0","63b88b7855864805bec51ddc","63b88b7855864805bec51ddc_20240212","","","7","78"
"1730","0","html-button-response","59","229151","0.0-59.0","63b88b7855864805bec51ddc","63b88b7855864805bec51ddc_20240212","","","7","152"
"1484","0","html-button-response","60","231148","0.0-60.0","63b88b7855864805bec51ddc","63b88b7855864805bec51ddc_20240212","","","8","153"
"2937","0","html-button-response","61","234596","0.0-61.0","63b88b7855864805bec51ddc","63b88b7855864805bec51ddc_20240212","","","8","145"
"3259","0","html-button-response","62","238364","0.0-62.0","63b88b7855864805bec51ddc","63b88b7855864805bec51ddc_20240212","","","5","35"
"2229","0","html-button-response","63","241101","0.0-63.0","63b88b7855864805bec51ddc","63b88b7855864805bec51ddc_20240212","","","7","147"
"1914","0","html-button-response","64","243532","0.0-64.0","63b88b7855864805bec51ddc","63b88b7855864805bec51ddc_20240212","","","5","27"
"4529","0","html-button-response","65","248571","0.0-65.0","63b88b7855864805bec51ddc","63b88b7855864805bec51ddc_20240212","","","6","87"
"1093","0","html-button-response","66","250172","0.0-66.0","63b88b7855864805bec51ddc","63b88b7855864805bec51ddc_20240212","","","",""
"14292","0","html-button-response","67","264975","0.0-67.0","63b88b7855864805bec51ddc","63b88b7855864805bec51ddc_20240212","","","6","102"
"2207","0","html-button-response","68","267696","0.0-68.0","63b88b7855864805bec51ddc","63b88b7855864805bec51ddc_20240212","","","6","160"
"4206","0","html-button-response","69","272413","0.0-69.0","63b88b7855864805bec51ddc","63b88b7855864805bec51ddc_20240212","","","5","105"
"5453","0","html-button-response","70","278381","0.0-70.0","63b88b7855864805bec51ddc","63b88b7855864805bec51ddc_20240212","","","5","54"
"2393","0","html-button-response","71","281281","0.0-71.0","63b88b7855864805bec51ddc","63b88b7855864805bec51ddc_20240212","","","8","100"
"2184","0","html-button-response","72","283981","0.0-72.0","63b88b7855864805bec51ddc","63b88b7855864805bec51ddc_20240212","","","6","45"
"2940","0","html-button-response","73","287438","0.0-73.0","63b88b7855864805bec51ddc","63b88b7855864805bec51ddc_20240212","","","7","92"
"9410","0","html-button-response","74","297364","0.0-74.0","63b88b7855864805bec51ddc","63b88b7855864805bec51ddc_20240212","","","4","42"
"3480","0","html-button-response","75","301350","0.0-75.0","63b88b7855864805bec51ddc","63b88b7855864805bec51ddc_20240212","","","7","99"
"3867","0","html-button-response","76","305733","0.0-76.0","63b88b7855864805bec51ddc","63b88b7855864805bec51ddc_20240212","","","4","38"
"1703","0","html-button-response","77","307946","0.0-77.0","63b88b7855864805bec51ddc","63b88b7855864805bec51ddc_20240212","","","5","168"
"2517","0","html-button-response","78","310965","0.0-78.0","63b88b7855864805bec51ddc","63b88b7855864805bec51ddc_20240212","","","4","95"
"1850","0","html-button-response","79","313320","0.0-79.0","63b88b7855864805bec51ddc","63b88b7855864805bec51ddc_20240212","","","3","175"
"3127","0","html-button-response","80","316960","0.0-80.0","63b88b7855864805bec51ddc","63b88b7855864805bec51ddc_20240212","","","3","106"
"3148","0","html-button-response","81","320612","0.0-81.0","63b88b7855864805bec51ddc","63b88b7855864805bec51ddc_20240212","","","2","103"
"2501","0","html-button-response","82","323630","0.0-82.0","63b88b7855864805bec51ddc","63b88b7855864805bec51ddc_20240212","","","2","98"
"3426","0","html-button-response","83","327559","0.0-83.0","63b88b7855864805bec51ddc","63b88b7855864805bec51ddc_20240212","","","4","53"
"4590","0","html-button-response","84","332651","0.0-84.0","63b88b7855864805bec51ddc","63b88b7855864805bec51ddc_20240212","","","3","108"
"6123","0","html-button-response","85","339280","0.0-85.0","63b88b7855864805bec51ddc","63b88b7855864805bec51ddc_20240212","","","3","158"
"8894","0","html-button-response","86","348684","0.0-86.0","63b88b7855864805bec51ddc","63b88b7855864805bec51ddc_20240212","","","4","49"
"2546","0","html-button-response","87","351747","0.0-87.0","63b88b7855864805bec51ddc","63b88b7855864805bec51ddc_20240212","","","7","104"
"2083","0","html-button-response","88","354346","0.0-88.0","63b88b7855864805bec51ddc","63b88b7855864805bec51ddc_20240212","","","7","167"
"1834","0","html-button-response","89","356693","0.0-89.0","63b88b7855864805bec51ddc","63b88b7855864805bec51ddc_20240212","","","7","159"
"2469","0","html-button-response","90","359678","0.0-90.0","63b88b7855864805bec51ddc","63b88b7855864805bec51ddc_20240212","","","7","177"
"4731","0","html-button-response","91","364922","0.0-91.0","63b88b7855864805bec51ddc","63b88b7855864805bec51ddc_20240212","","","5","161"
"2024","0","html-button-response","92","367448","0.0-92.0","63b88b7855864805bec51ddc","63b88b7855864805bec51ddc_20240212","","","8","101"
"3088","0","html-button-response","93","371044","0.0-93.0","63b88b7855864805bec51ddc","63b88b7855864805bec51ddc_20240212","","","6","43"
"6169","0","html-button-response","94","377724","0.0-94.0","63b88b7855864805bec51ddc","63b88b7855864805bec51ddc_20240212","","","7","183"
"3855","0","html-button-response","95","382085","0.0-95.0","63b88b7855864805bec51ddc","63b88b7855864805bec51ddc_20240212","","","7","170"
"1947","0","html-button-response","96","384544","0.0-96.0","63b88b7855864805bec51ddc","63b88b7855864805bec51ddc_20240212","","","6","44"
"2626","0","html-button-response","97","387687","0.0-97.0","63b88b7855864805bec51ddc","63b88b7855864805bec51ddc_20240212","","","5","51"
"3118","0","html-button-response","98","391313","0.0-98.0","63b88b7855864805bec51ddc","63b88b7855864805bec51ddc_20240212","","","5","173"
"1828","0","html-button-response","99","393643","0.0-99.0","63b88b7855864805bec51ddc","63b88b7855864805bec51ddc_20240212","","","8","94"
"2039","0","html-button-response","100","396186","0.0-100.0","63b88b7855864805bec51ddc","63b88b7855864805bec51ddc_20240212","","","6","162"
"4079","0","html-button-response","101","400780","0.0-101.0","63b88b7855864805bec51ddc","63b88b7855864805bec51ddc_20240212","","","6","174"
"6640","0","html-button-response","102","407922","0.0-102.0","63b88b7855864805bec51ddc","63b88b7855864805bec51ddc_20240212","","","5","171"
"2672","0","html-button-response","103","411098","0.0-103.0","63b88b7855864805bec51ddc","63b88b7855864805bec51ddc_20240212","","","5","41"
"2900","0","html-button-response","104","414515","0.0-104.0","63b88b7855864805bec51ddc","63b88b7855864805bec51ddc_20240212","","","5","181"
"2752","0","html-button-response","105","417781","0.0-105.0","63b88b7855864805bec51ddc","63b88b7855864805bec51ddc_20240212","","","7","96"
"3302","0","html-button-response","106","421585","0.0-106.0","63b88b7855864805bec51ddc","63b88b7855864805bec51ddc_20240212","","","5","166"
"3687","0","html-button-response","107","425781","0.0-107.0","63b88b7855864805bec51ddc","63b88b7855864805bec51ddc_20240212","","","4","47"
"2266","0","html-button-response","108","428556","0.0-108.0","63b88b7855864805bec51ddc","63b88b7855864805bec51ddc_20240212","","","7","97"
"8820","0","html-button-response","109","437884","0.0-109.0","63b88b7855864805bec51ddc","63b88b7855864805bec51ddc_20240212","","","7","155"
"14949","0","html-button-response","110","453335","0.0-110.0","63b88b7855864805bec51ddc","63b88b7855864805bec51ddc_20240212","","","6","164"
"6433","0","html-button-response","111","460273","0.0-111.0","63b88b7855864805bec51ddc","63b88b7855864805bec51ddc_20240212","","","5","172"
"1960","0","html-button-response","112","462748","0.0-112.0","63b88b7855864805bec51ddc","63b88b7855864805bec51ddc_20240212","","","6","107"
"2104","0","html-button-response","113","465366","0.0-113.0","63b88b7855864805bec51ddc","63b88b7855864805bec51ddc_20240212","","","6","182"
"2197","0","html-button-response","114","468077","0.0-114.0","63b88b7855864805bec51ddc","63b88b7855864805bec51ddc_20240212","","","6","40"
"2063","0","html-button-response","115","470646","0.0-115.0","63b88b7855864805bec51ddc","63b88b7855864805bec51ddc_20240212","","","6","52"
"2615","0","html-button-response","116","473767","0.0-116.0","63b88b7855864805bec51ddc","63b88b7855864805bec51ddc_20240212","","","7","37"
"2296","0","html-button-response","117","476580","0.0-117.0","63b88b7855864805bec51ddc","63b88b7855864805bec51ddc_20240212","","","5","91"
"2351","0","html-button-response","118","479435","0.0-118.0","63b88b7855864805bec51ddc","63b88b7855864805bec51ddc_20240212","","","5","165"
"1130","0","html-button-response","119","481077","0.0-119.0","63b88b7855864805bec51ddc","63b88b7855864805bec51ddc_20240212","","","6","156"
"1283","0","html-button-response","120","482861","0.0-120.0","63b88b7855864805bec51ddc","63b88b7855864805bec51ddc_20240212","","","6","176"
"2104","0","html-button-response","121","485470","0.0-121.0","63b88b7855864805bec51ddc","63b88b7855864805bec51ddc_20240212","","","6","48"
"1498","0","html-button-response","122","487482","0.0-122.0","63b88b7855864805bec51ddc","63b88b7855864805bec51ddc_20240212","","","6","169"
"3146","0","html-button-response","123","491143","0.0-123.0","63b88b7855864805bec51ddc","63b88b7855864805bec51ddc_20240212","","","6","157"
"2036","0","html-button-response","124","493689","0.0-124.0","63b88b7855864805bec51ddc","63b88b7855864805bec51ddc_20240212","","","5","39"
"4444","0","html-button-response","125","498649","0.0-125.0","63b88b7855864805bec51ddc","63b88b7855864805bec51ddc_20240212","","","6","46"
"3382","0","html-button-response","126","502540","0.0-126.0","63b88b7855864805bec51ddc","63b88b7855864805bec51ddc_20240212","","","6","163"
"2075","0","html-button-response","127","505122","0.0-127.0","63b88b7855864805bec51ddc","63b88b7855864805bec51ddc_20240212","","","5","50"
"2535","0","html-button-response","128","508165","0.0-128.0","63b88b7855864805bec51ddc","63b88b7855864805bec51ddc_20240212","","","5","93"
"1013","0","html-button-response","129","509693","0.0-129.0","63b88b7855864805bec51ddc","63b88b7855864805bec51ddc_20240212","","","",""
"4772","0","html-button-response","130","514967","0.0-130.0","63b88b7855864805bec51ddc","63b88b7855864805bec51ddc_20240212","","","8","117"
"1916","0","html-button-response","131","517392","0.0-131.0","63b88b7855864805bec51ddc","63b88b7855864805bec51ddc_20240212","","","8","15"
"1390","0","html-button-response","132","519287","0.0-132.0","63b88b7855864805bec51ddc","63b88b7855864805bec51ddc_20240212","","","8","113"
"3854","0","html-button-response","133","523655","0.0-133.0","63b88b7855864805bec51ddc","63b88b7855864805bec51ddc_20240212","","","9","61"
"7219","0","html-button-response","134","531385","0.0-134.0","63b88b7855864805bec51ddc","63b88b7855864805bec51ddc_20240212","","","8","114"
"4068","0","html-button-response","135","535964","0.0-135.0","63b88b7855864805bec51ddc","63b88b7855864805bec51ddc_20240212","","","8","130"
"2852","0","html-button-response","136","539319","0.0-136.0","63b88b7855864805bec51ddc","63b88b7855864805bec51ddc_20240212","","","7","17"
"1574","0","html-button-response","137","541396","0.0-137.0","63b88b7855864805bec51ddc","63b88b7855864805bec51ddc_20240212","","","8","122"
"1376","0","html-button-response","138","543278","0.0-138.0","63b88b7855864805bec51ddc","63b88b7855864805bec51ddc_20240212","","","8","115"
"2639","0","html-button-response","139","546433","0.0-139.0","63b88b7855864805bec51ddc","63b88b7855864805bec51ddc_20240212","","","7","7"
"4000","0","html-button-response","140","550938","0.0-140.0","63b88b7855864805bec51ddc","63b88b7855864805bec51ddc_20240212","","","7","1"
"1652","0","html-button-response","141","553099","0.0-141.0","63b88b7855864805bec51ddc","63b88b7855864805bec51ddc_20240212","","","7","58"
"1382","0","html-button-response","142","554995","0.0-142.0","63b88b7855864805bec51ddc","63b88b7855864805bec51ddc_20240212","","","8","64"
"1556","0","html-button-response","143","557060","0.0-143.0","63b88b7855864805bec51ddc","63b88b7855864805bec51ddc_20240212","","","6","11"
"12844","0","html-button-response","144","570412","0.0-144.0","63b88b7855864805bec51ddc","63b88b7855864805bec51ddc_20240212","","","8","119"
"2718","0","html-button-response","145","573645","0.0-145.0","63b88b7855864805bec51ddc","63b88b7855864805bec51ddc_20240212","","","8","112"
"4541","0","html-button-response","146","578703","0.0-146.0","63b88b7855864805bec51ddc","63b88b7855864805bec51ddc_20240212","","","8","120"
"2169","0","html-button-response","147","581386","0.0-147.0","63b88b7855864805bec51ddc","63b88b7855864805bec51ddc_20240212","","","7","9"
"2864","0","html-button-response","148","584763","0.0-148.0","63b88b7855864805bec51ddc","63b88b7855864805bec51ddc_20240212","","","3","60"
"1909","0","html-button-response","149","587189","0.0-149.0","63b88b7855864805bec51ddc","63b88b7855864805bec51ddc_20240212","","","7","5"
"1797","0","html-button-response","150","589495","0.0-150.0","63b88b7855864805bec51ddc","63b88b7855864805bec51ddc_20240212","","","8","71"
"2729","0","html-button-response","151","592731","0.0-151.0","63b88b7855864805bec51ddc","63b88b7855864805bec51ddc_20240212","","","6","2"
"1781","0","html-button-response","152","595028","0.0-152.0","63b88b7855864805bec51ddc","63b88b7855864805bec51ddc_20240212","","","8","66"
"1788","0","html-button-response","153","597322","0.0-153.0","63b88b7855864805bec51ddc","63b88b7855864805bec51ddc_20240212","","","8","109"
"1659","0","html-button-response","154","599486","0.0-154.0","63b88b7855864805bec51ddc","63b88b7855864805bec51ddc_20240212","","","8","125"
"5722","0","html-button-response","155","605717","0.0-155.0","63b88b7855864805bec51ddc","63b88b7855864805bec51ddc_20240212","","","6","16"
"2304","0","html-button-response","156","608532","0.0-156.0","63b88b7855864805bec51ddc","63b88b7855864805bec51ddc_20240212","","","8","6"
"2429","0","html-button-response","157","611463","0.0-157.0","63b88b7855864805bec51ddc","63b88b7855864805bec51ddc_20240212","","","7","3"
"2050","0","html-button-response","158","614022","0.0-158.0","63b88b7855864805bec51ddc","63b88b7855864805bec51ddc_20240212","","","8","55"
"16009","0","html-button-response","159","630540","0.0-159.0","63b88b7855864805bec51ddc","63b88b7855864805bec51ddc_20240212","","","7","13"
"2327","0","html-button-response","160","633372","0.0-160.0","63b88b7855864805bec51ddc","63b88b7855864805bec51ddc_20240212","","","8","128"
"1331","0","html-button-response","161","635212","0.0-161.0","63b88b7855864805bec51ddc","63b88b7855864805bec51ddc_20240212","","","8","110"
"1516","0","html-button-response","162","637233","0.0-162.0","63b88b7855864805bec51ddc","63b88b7855864805bec51ddc_20240212","","","8","72"
"2029","0","html-button-response","163","639766","0.0-163.0","63b88b7855864805bec51ddc","63b88b7855864805bec51ddc_20240212","","","8","56"
"3233","0","html-button-response","164","643509","0.0-164.0","63b88b7855864805bec51ddc","63b88b7855864805bec51ddc_20240212","","","8","69"
"2556","0","html-button-response","165","646579","0.0-165.0","63b88b7855864805bec51ddc","63b88b7855864805bec51ddc_20240212","","","8","131"
"1780","0","html-button-response","166","648865","0.0-166.0","63b88b7855864805bec51ddc","63b88b7855864805bec51ddc_20240212","","","7","111"
"2620","0","html-button-response","167","651987","0.0-167.0","63b88b7855864805bec51ddc","63b88b7855864805bec51ddc_20240212","","","6","12"
"1494","0","html-button-response","168","653995","0.0-168.0","63b88b7855864805bec51ddc","63b88b7855864805bec51ddc_20240212","","","8","70"
"5795","0","html-button-response","169","660300","0.0-169.0","63b88b7855864805bec51ddc","63b88b7855864805bec51ddc_20240212","","","7","4"
"2236","0","html-button-response","170","663039","0.0-170.0","63b88b7855864805bec51ddc","63b88b7855864805bec51ddc_20240212","","","8","123"
"1108","0","html-button-response","171","664660","0.0-171.0","63b88b7855864805bec51ddc","63b88b7855864805bec51ddc_20240212","","","8","124"
"1584","0","html-button-response","172","666754","0.0-172.0","63b88b7855864805bec51ddc","63b88b7855864805bec51ddc_20240212","","","8","129"
"1279","0","html-button-response","173","668536","0.0-173.0","63b88b7855864805bec51ddc","63b88b7855864805bec51ddc_20240212","","","8","62"
"2104","0","html-button-response","174","671157","0.0-174.0","63b88b7855864805bec51ddc","63b88b7855864805bec51ddc_20240212","","","8","10"
"2029","0","html-button-response","175","673693","0.0-175.0","63b88b7855864805bec51ddc","63b88b7855864805bec51ddc_20240212","","","8","118"
"2517","0","html-button-response","176","676716","0.0-176.0","63b88b7855864805bec51ddc","63b88b7855864805bec51ddc_20240212","","","8","68"
"1796","0","html-button-response","177","679019","0.0-177.0","63b88b7855864805bec51ddc","63b88b7855864805bec51ddc_20240212","","","7","18"
"1561","0","html-button-response","178","681093","0.0-178.0","63b88b7855864805bec51ddc","63b88b7855864805bec51ddc_20240212","","","8","116"
"3634","0","html-button-response","179","685233","0.0-179.0","63b88b7855864805bec51ddc","63b88b7855864805bec51ddc_20240212","","","8","127"
"5464","0","html-button-response","180","691200","0.0-180.0","63b88b7855864805bec51ddc","63b88b7855864805bec51ddc_20240212","","","7","63"
"3760","0","html-button-response","181","695464","0.0-181.0","63b88b7855864805bec51ddc","63b88b7855864805bec51ddc_20240212","","","8","126"
"7977","0","html-button-response","182","703951","0.0-182.0","63b88b7855864805bec51ddc","63b88b7855864805bec51ddc_20240212","","","7","121"
"4296","0","html-button-response","183","708763","0.0-183.0","63b88b7855864805bec51ddc","63b88b7855864805bec51ddc_20240212","","","8","65"
"3722","0","html-button-response","184","712997","0.0-184.0","63b88b7855864805bec51ddc","63b88b7855864805bec51ddc_20240212","","","6","14"
"2234","0","html-button-response","185","715742","0.0-185.0","63b88b7855864805bec51ddc","63b88b7855864805bec51ddc_20240212","","","7","8"
"7476","0","html-button-response","186","723729","0.0-186.0","63b88b7855864805bec51ddc","63b88b7855864805bec51ddc_20240212","","","8","57"
"6288","0","html-button-response","187","730527","0.0-187.0","63b88b7855864805bec51ddc","63b88b7855864805bec51ddc_20240212","","","8","59"
"7419","0","html-button-response","188","738459","0.0-188.0","63b88b7855864805bec51ddc","63b88b7855864805bec51ddc_20240212","","","8","67"
"7826","0","html-button-response","189","746795","0.0-189.0","63b88b7855864805bec51ddc","63b88b7855864805bec51ddc_20240212","","Thank you. You have reached the end. 
                       <br>Click the button below to reveal your compensation.
                        <br><br>","",""
