"rt","response","trial_type","trial_index","time_elapsed","internal_node_id","part_ID","ID_DATE","screen_id","stimulus","rating","img_id"
"154929","0","html-button-response","0","154933","0.0-0.0","63c2fa5b78993a3a14e5e1c3","63c2fa5b78993a3a14e5e1c3_20240212","","","",""
"15609","[object Object]","survey-html-form","1","171051","0.0-1.0","63c2fa5b78993a3a14e5e1c3","63c2fa5b78993a3a14e5e1c3_20240212","prolific_id_page","","",""
"38318","0","html-button-response","2","209371","0.0-2.0","63c2fa5b78993a3a14e5e1c3","63c2fa5b78993a3a14e5e1c3_20240212","","","",""
"3965","0","html-button-response","3","213842","0.0-3.0","63c2fa5b78993a3a14e5e1c3","63c2fa5b78993a3a14e5e1c3_20240212","","
<div>
Great! You will now go on to rate the faces.
<br><br>
</div>
","",""
"28858","0","html-button-response","4","243203","0.0-4.0","63c2fa5b78993a3a14e5e1c3","63c2fa5b78993a3a14e5e1c3_20240212","","","7","171"
"15504","0","html-button-response","5","259219","0.0-5.0","63c2fa5b78993a3a14e5e1c3","63c2fa5b78993a3a14e5e1c3_20240212","","","3","155"
"7285","0","html-button-response","6","267011","0.0-6.0","63c2fa5b78993a3a14e5e1c3","63c2fa5b78993a3a14e5e1c3_20240212","","","6","156"
"10161","0","html-button-response","7","277675","0.0-7.0","63c2fa5b78993a3a14e5e1c3","63c2fa5b78993a3a14e5e1c3_20240212","","","1","49"
"11622","0","html-button-response","8","289811","0.0-8.0","63c2fa5b78993a3a14e5e1c3","63c2fa5b78993a3a14e5e1c3_20240212","","","1","53"
"9867","0","html-button-response","9","300196","0.0-9.0","63c2fa5b78993a3a14e5e1c3","63c2fa5b78993a3a14e5e1c3_20240212","","","1","95"
"14310","0","html-button-response","10","315011","0.0-10.0","63c2fa5b78993a3a14e5e1c3","63c2fa5b78993a3a14e5e1c3_20240212","","","2","162"
"8705","0","html-button-response","11","324227","0.0-11.0","63c2fa5b78993a3a14e5e1c3","63c2fa5b78993a3a14e5e1c3_20240212","","","1","48"
"9748","0","html-button-response","12","334483","0.0-12.0","63c2fa5b78993a3a14e5e1c3","63c2fa5b78993a3a14e5e1c3_20240212","","","1","47"
"8758","0","html-button-response","13","343755","0.0-13.0","63c2fa5b78993a3a14e5e1c3","63c2fa5b78993a3a14e5e1c3_20240212","","","6","168"
"9422","0","html-button-response","14","353691","0.0-14.0","63c2fa5b78993a3a14e5e1c3","63c2fa5b78993a3a14e5e1c3_20240212","","","7","37"
"4800","0","html-button-response","15","359003","0.0-15.0","63c2fa5b78993a3a14e5e1c3","63c2fa5b78993a3a14e5e1c3_20240212","","","1","46"
"4761","0","html-button-response","16","364267","0.0-16.0","63c2fa5b78993a3a14e5e1c3","63c2fa5b78993a3a14e5e1c3_20240212","","","1","182"
"5740","0","html-button-response","17","370522","0.0-17.0","63c2fa5b78993a3a14e5e1c3","63c2fa5b78993a3a14e5e1c3_20240212","","","6","176"
"9408","0","html-button-response","18","380443","0.0-18.0","63c2fa5b78993a3a14e5e1c3","63c2fa5b78993a3a14e5e1c3_20240212","","","5","50"
"5599","0","html-button-response","19","386547","0.0-19.0","63c2fa5b78993a3a14e5e1c3","63c2fa5b78993a3a14e5e1c3_20240212","","","1","105"
"4521","0","html-button-response","20","391571","0.0-20.0","63c2fa5b78993a3a14e5e1c3","63c2fa5b78993a3a14e5e1c3_20240212","","","1","42"
"5711","0","html-button-response","21","397794","0.0-21.0","63c2fa5b78993a3a14e5e1c3","63c2fa5b78993a3a14e5e1c3_20240212","","","8","97"
"5019","0","html-button-response","22","403323","0.0-22.0","63c2fa5b78993a3a14e5e1c3","63c2fa5b78993a3a14e5e1c3_20240212","","","7","172"
"6324","0","html-button-response","23","410162","0.0-23.0","63c2fa5b78993a3a14e5e1c3","63c2fa5b78993a3a14e5e1c3_20240212","","","5","174"
"5987","0","html-button-response","24","416659","0.0-24.0","63c2fa5b78993a3a14e5e1c3","63c2fa5b78993a3a14e5e1c3_20240212","","","5","165"
"5451","0","html-button-response","25","422619","0.0-25.0","63c2fa5b78993a3a14e5e1c3","63c2fa5b78993a3a14e5e1c3_20240212","","","6","173"
"6944","0","html-button-response","26","430075","0.0-26.0","63c2fa5b78993a3a14e5e1c3","63c2fa5b78993a3a14e5e1c3_20240212","","","5","175"
"20702","0","html-button-response","27","451291","0.0-27.0","63c2fa5b78993a3a14e5e1c3","63c2fa5b78993a3a14e5e1c3_20240212","","","1","93"
"7802","0","html-button-response","28","459595","0.0-28.0","63c2fa5b78993a3a14e5e1c3","63c2fa5b78993a3a14e5e1c3_20240212","","","7","159"
"10209","0","html-button-response","29","470307","0.0-29.0","63c2fa5b78993a3a14e5e1c3","63c2fa5b78993a3a14e5e1c3_20240212","","","5","163"
"15300","0","html-button-response","30","486115","0.0-30.0","63c2fa5b78993a3a14e5e1c3","63c2fa5b78993a3a14e5e1c3_20240212","","","1","54"
"16819","0","html-button-response","31","503443","0.0-31.0","63c2fa5b78993a3a14e5e1c3","63c2fa5b78993a3a14e5e1c3_20240212","","","8","169"
"7575","0","html-button-response","32","511523","0.0-32.0","63c2fa5b78993a3a14e5e1c3","63c2fa5b78993a3a14e5e1c3_20240212","","","2","183"
"13697","0","html-button-response","33","525723","0.0-33.0","63c2fa5b78993a3a14e5e1c3","63c2fa5b78993a3a14e5e1c3_20240212","","","8","164"
"3722","0","html-button-response","34","529955","0.0-34.0","63c2fa5b78993a3a14e5e1c3","63c2fa5b78993a3a14e5e1c3_20240212","","","1","181"
"11221","0","html-button-response","35","541683","0.0-35.0","63c2fa5b78993a3a14e5e1c3","63c2fa5b78993a3a14e5e1c3_20240212","","","9","103"
"3519","0","html-button-response","36","545707","0.0-36.0","63c2fa5b78993a3a14e5e1c3","63c2fa5b78993a3a14e5e1c3_20240212","","","1","51"
"3260","0","html-button-response","37","549475","0.0-37.0","63c2fa5b78993a3a14e5e1c3","63c2fa5b78993a3a14e5e1c3_20240212","","","1","106"
"3598","0","html-button-response","38","553579","0.0-38.0","63c2fa5b78993a3a14e5e1c3","63c2fa5b78993a3a14e5e1c3_20240212","","","7","177"
"3328","0","html-button-response","39","557419","0.0-39.0","63c2fa5b78993a3a14e5e1c3","63c2fa5b78993a3a14e5e1c3_20240212","","","7","167"
"4108","0","html-button-response","40","562043","0.0-40.0","63c2fa5b78993a3a14e5e1c3","63c2fa5b78993a3a14e5e1c3_20240212","","","1","41"
"5831","0","html-button-response","41","568387","0.0-41.0","63c2fa5b78993a3a14e5e1c3","63c2fa5b78993a3a14e5e1c3_20240212","","","5","161"
"6452","0","html-button-response","42","575355","0.0-42.0","63c2fa5b78993a3a14e5e1c3","63c2fa5b78993a3a14e5e1c3_20240212","","","8","160"
"3103","0","html-button-response","43","578963","0.0-43.0","63c2fa5b78993a3a14e5e1c3","63c2fa5b78993a3a14e5e1c3_20240212","","","8","158"
"3521","0","html-button-response","44","582995","0.0-44.0","63c2fa5b78993a3a14e5e1c3","63c2fa5b78993a3a14e5e1c3_20240212","","","1","44"
"6634","0","html-button-response","45","590131","0.0-45.0","63c2fa5b78993a3a14e5e1c3","63c2fa5b78993a3a14e5e1c3_20240212","","","1","98"
"5243","0","html-button-response","46","595890","0.0-46.0","63c2fa5b78993a3a14e5e1c3","63c2fa5b78993a3a14e5e1c3_20240212","","","5","166"
"3567","0","html-button-response","47","599963","0.0-47.0","63c2fa5b78993a3a14e5e1c3","63c2fa5b78993a3a14e5e1c3_20240212","","","1","91"
"3821","0","html-button-response","48","604299","0.0-48.0","63c2fa5b78993a3a14e5e1c3","63c2fa5b78993a3a14e5e1c3_20240212","","","7","102"
"3448","0","html-button-response","49","608259","0.0-49.0","63c2fa5b78993a3a14e5e1c3","63c2fa5b78993a3a14e5e1c3_20240212","","","8","101"
"5049","0","html-button-response","50","613819","0.0-50.0","63c2fa5b78993a3a14e5e1c3","63c2fa5b78993a3a14e5e1c3_20240212","","","7","157"
"4208","0","html-button-response","51","618531","0.0-51.0","63c2fa5b78993a3a14e5e1c3","63c2fa5b78993a3a14e5e1c3_20240212","","","9","94"
"3680","0","html-button-response","52","622715","0.0-52.0","63c2fa5b78993a3a14e5e1c3","63c2fa5b78993a3a14e5e1c3_20240212","","","1","43"
"4790","0","html-button-response","53","628019","0.0-53.0","63c2fa5b78993a3a14e5e1c3","63c2fa5b78993a3a14e5e1c3_20240212","","","1","45"
"15120","0","html-button-response","54","643644","0.0-54.0","63c2fa5b78993a3a14e5e1c3","63c2fa5b78993a3a14e5e1c3_20240212","","","1","99"
"4930","0","html-button-response","55","649083","0.0-55.0","63c2fa5b78993a3a14e5e1c3","63c2fa5b78993a3a14e5e1c3_20240212","","","6","170"
"7513","0","html-button-response","56","657099","0.0-56.0","63c2fa5b78993a3a14e5e1c3","63c2fa5b78993a3a14e5e1c3_20240212","","","5","107"
"3455","0","html-button-response","57","661067","0.0-57.0","63c2fa5b78993a3a14e5e1c3","63c2fa5b78993a3a14e5e1c3_20240212","","","7","104"
"3061","0","html-button-response","58","664635","0.0-58.0","63c2fa5b78993a3a14e5e1c3","63c2fa5b78993a3a14e5e1c3_20240212","","","7","92"
"3799","0","html-button-response","59","668947","0.0-59.0","63c2fa5b78993a3a14e5e1c3","63c2fa5b78993a3a14e5e1c3_20240212","","","1","38"
"4104","0","html-button-response","60","673555","0.0-60.0","63c2fa5b78993a3a14e5e1c3","63c2fa5b78993a3a14e5e1c3_20240212","","","7","96"
"3833","0","html-button-response","61","677891","0.0-61.0","63c2fa5b78993a3a14e5e1c3","63c2fa5b78993a3a14e5e1c3_20240212","","","1","108"
"3534","0","html-button-response","62","681939","0.0-62.0","63c2fa5b78993a3a14e5e1c3","63c2fa5b78993a3a14e5e1c3_20240212","","","1","40"
"6614","0","html-button-response","63","689067","0.0-63.0","63c2fa5b78993a3a14e5e1c3","63c2fa5b78993a3a14e5e1c3_20240212","","","8","100"
"3958","0","html-button-response","64","693531","0.0-64.0","63c2fa5b78993a3a14e5e1c3","63c2fa5b78993a3a14e5e1c3_20240212","","","1","52"
"12222","0","html-button-response","65","706259","0.0-65.0","63c2fa5b78993a3a14e5e1c3","63c2fa5b78993a3a14e5e1c3_20240212","","","1","39"
"4270","0","html-button-response","66","711035","0.0-66.0","63c2fa5b78993a3a14e5e1c3","63c2fa5b78993a3a14e5e1c3_20240212","","","",""
"32947","0","html-button-response","67","744491","0.0-67.0","63c2fa5b78993a3a14e5e1c3","63c2fa5b78993a3a14e5e1c3_20240212","","","6","35"
"3341","0","html-button-response","68","748339","0.0-68.0","63c2fa5b78993a3a14e5e1c3","63c2fa5b78993a3a14e5e1c3_20240212","","","8","83"
"2961","0","html-button-response","69","751811","0.0-69.0","63c2fa5b78993a3a14e5e1c3","63c2fa5b78993a3a14e5e1c3_20240212","","","9","80"
"3317","0","html-button-response","70","755643","0.0-70.0","63c2fa5b78993a3a14e5e1c3","63c2fa5b78993a3a14e5e1c3_20240212","","","9","142"
"2813","0","html-button-response","71","758971","0.0-71.0","63c2fa5b78993a3a14e5e1c3","63c2fa5b78993a3a14e5e1c3_20240212","","","9","78"
"3502","0","html-button-response","72","762987","0.0-72.0","63c2fa5b78993a3a14e5e1c3","63c2fa5b78993a3a14e5e1c3_20240212","","","8","154"
"2986","0","html-button-response","73","766475","0.0-73.0","63c2fa5b78993a3a14e5e1c3","63c2fa5b78993a3a14e5e1c3_20240212","","","9","90"
"3547","0","html-button-response","74","770531","0.0-74.0","63c2fa5b78993a3a14e5e1c3","63c2fa5b78993a3a14e5e1c3_20240212","","","8","134"
"3708","0","html-button-response","75","774747","0.0-75.0","63c2fa5b78993a3a14e5e1c3","63c2fa5b78993a3a14e5e1c3_20240212","","","6","33"
"2850","0","html-button-response","76","778107","0.0-76.0","63c2fa5b78993a3a14e5e1c3","63c2fa5b78993a3a14e5e1c3_20240212","","","6","31"
"6224","0","html-button-response","77","784843","0.0-77.0","63c2fa5b78993a3a14e5e1c3","63c2fa5b78993a3a14e5e1c3_20240212","","","7","24"
"3311","0","html-button-response","78","788667","0.0-78.0","63c2fa5b78993a3a14e5e1c3","63c2fa5b78993a3a14e5e1c3_20240212","","","8","180"
"3572","0","html-button-response","79","792747","0.0-79.0","63c2fa5b78993a3a14e5e1c3","63c2fa5b78993a3a14e5e1c3_20240212","","","7","30"
"4591","0","html-button-response","80","797842","0.0-80.0","63c2fa5b78993a3a14e5e1c3","63c2fa5b78993a3a14e5e1c3_20240212","","","9","76"
"3686","0","html-button-response","81","802042","0.0-81.0","63c2fa5b78993a3a14e5e1c3","63c2fa5b78993a3a14e5e1c3_20240212","","","9","150"
"3248","0","html-button-response","82","805802","0.0-82.0","63c2fa5b78993a3a14e5e1c3","63c2fa5b78993a3a14e5e1c3_20240212","","","6","32"
"23957","0","html-button-response","83","830274","0.0-83.0","63c2fa5b78993a3a14e5e1c3","63c2fa5b78993a3a14e5e1c3_20240212","","","5","29"
"3855","0","html-button-response","84","834642","0.0-84.0","63c2fa5b78993a3a14e5e1c3","63c2fa5b78993a3a14e5e1c3_20240212","","","9","73"
"3295","0","html-button-response","85","838450","0.0-85.0","63c2fa5b78993a3a14e5e1c3","63c2fa5b78993a3a14e5e1c3_20240212","","","9","89"
"3578","0","html-button-response","86","842530","0.0-86.0","63c2fa5b78993a3a14e5e1c3","63c2fa5b78993a3a14e5e1c3_20240212","","","8","179"
"3210","0","html-button-response","87","846250","0.0-87.0","63c2fa5b78993a3a14e5e1c3","63c2fa5b78993a3a14e5e1c3_20240212","","","8","138"
"3547","0","html-button-response","88","850306","0.0-88.0","63c2fa5b78993a3a14e5e1c3","63c2fa5b78993a3a14e5e1c3_20240212","","","9","88"
"7141","0","html-button-response","89","857955","0.0-89.0","63c2fa5b78993a3a14e5e1c3","63c2fa5b78993a3a14e5e1c3_20240212","","","8","75"
"2753","0","html-button-response","90","861219","0.0-90.0","63c2fa5b78993a3a14e5e1c3","63c2fa5b78993a3a14e5e1c3_20240212","","","8","140"
"5076","0","html-button-response","91","866803","0.0-91.0","63c2fa5b78993a3a14e5e1c3","63c2fa5b78993a3a14e5e1c3_20240212","","","6","28"
"5973","0","html-button-response","92","873291","0.0-92.0","63c2fa5b78993a3a14e5e1c3","63c2fa5b78993a3a14e5e1c3_20240212","","","7","149"
"5512","0","html-button-response","93","879315","0.0-93.0","63c2fa5b78993a3a14e5e1c3","63c2fa5b78993a3a14e5e1c3_20240212","","","8","84"
"2983","0","html-button-response","94","882803","0.0-94.0","63c2fa5b78993a3a14e5e1c3","63c2fa5b78993a3a14e5e1c3_20240212","","","8","153"
"2918","0","html-button-response","95","886227","0.0-95.0","63c2fa5b78993a3a14e5e1c3","63c2fa5b78993a3a14e5e1c3_20240212","","","5","25"
"3642","0","html-button-response","96","890371","0.0-96.0","63c2fa5b78993a3a14e5e1c3","63c2fa5b78993a3a14e5e1c3_20240212","","","8","135"
"5183","0","html-button-response","97","896059","0.0-97.0","63c2fa5b78993a3a14e5e1c3","63c2fa5b78993a3a14e5e1c3_20240212","","","4","22"
"2713","0","html-button-response","98","899275","0.0-98.0","63c2fa5b78993a3a14e5e1c3","63c2fa5b78993a3a14e5e1c3_20240212","","","8","82"
"3280","0","html-button-response","99","903067","0.0-99.0","63c2fa5b78993a3a14e5e1c3","63c2fa5b78993a3a14e5e1c3_20240212","","","8","79"
"3351","0","html-button-response","100","906931","0.0-100.0","63c2fa5b78993a3a14e5e1c3","63c2fa5b78993a3a14e5e1c3_20240212","","","8","85"
"6546","0","html-button-response","101","913987","0.0-101.0","63c2fa5b78993a3a14e5e1c3","63c2fa5b78993a3a14e5e1c3_20240212","","","2","36"
"4934","0","html-button-response","102","919435","0.0-102.0","63c2fa5b78993a3a14e5e1c3","63c2fa5b78993a3a14e5e1c3_20240212","","","7","137"
"5586","0","html-button-response","103","925523","0.0-103.0","63c2fa5b78993a3a14e5e1c3","63c2fa5b78993a3a14e5e1c3_20240212","","","3","21"
"3605","0","html-button-response","104","929635","0.0-104.0","63c2fa5b78993a3a14e5e1c3","63c2fa5b78993a3a14e5e1c3_20240212","","","7","178"
"3304","0","html-button-response","105","933443","0.0-105.0","63c2fa5b78993a3a14e5e1c3","63c2fa5b78993a3a14e5e1c3_20240212","","","7","148"
"15940","0","html-button-response","106","949891","0.0-106.0","63c2fa5b78993a3a14e5e1c3","63c2fa5b78993a3a14e5e1c3_20240212","","","5","27"
"12721","0","html-button-response","107","963123","0.0-107.0","63c2fa5b78993a3a14e5e1c3","63c2fa5b78993a3a14e5e1c3_20240212","","","8","81"
"3485","0","html-button-response","108","967115","0.0-108.0","63c2fa5b78993a3a14e5e1c3","63c2fa5b78993a3a14e5e1c3_20240212","","","6","19"
"4796","0","html-button-response","109","972419","0.0-109.0","63c2fa5b78993a3a14e5e1c3","63c2fa5b78993a3a14e5e1c3_20240212","","","3","20"
"10090","0","html-button-response","110","983010","0.0-110.0","63c2fa5b78993a3a14e5e1c3","63c2fa5b78993a3a14e5e1c3_20240212","","","3","34"
"15642","0","html-button-response","111","999154","0.0-111.0","63c2fa5b78993a3a14e5e1c3","63c2fa5b78993a3a14e5e1c3_20240212","","","8","133"
"3638","0","html-button-response","112","1003307","0.0-112.0","63c2fa5b78993a3a14e5e1c3","63c2fa5b78993a3a14e5e1c3_20240212","","","8","151"
"62939","0","html-button-response","113","1066763","0.0-113.0","63c2fa5b78993a3a14e5e1c3","63c2fa5b78993a3a14e5e1c3_20240212","","","8","74"
"4677","0","html-button-response","114","1071955","0.0-114.0","63c2fa5b78993a3a14e5e1c3","63c2fa5b78993a3a14e5e1c3_20240212","","","6","23"
"5485","0","html-button-response","115","1077947","0.0-115.0","63c2fa5b78993a3a14e5e1c3","63c2fa5b78993a3a14e5e1c3_20240212","","","9","86"
"2724","0","html-button-response","116","1081187","0.0-116.0","63c2fa5b78993a3a14e5e1c3","63c2fa5b78993a3a14e5e1c3_20240212","","","8","144"
"2703","0","html-button-response","117","1084395","0.0-117.0","63c2fa5b78993a3a14e5e1c3","63c2fa5b78993a3a14e5e1c3_20240212","","","8","136"
"2832","0","html-button-response","118","1087739","0.0-118.0","63c2fa5b78993a3a14e5e1c3","63c2fa5b78993a3a14e5e1c3_20240212","","","9","77"
"4837","0","html-button-response","119","1093083","0.0-119.0","63c2fa5b78993a3a14e5e1c3","63c2fa5b78993a3a14e5e1c3_20240212","","","4","26"
"3166","0","html-button-response","120","1096763","0.0-120.0","63c2fa5b78993a3a14e5e1c3","63c2fa5b78993a3a14e5e1c3_20240212","","","8","145"
"2949","0","html-button-response","121","1100227","0.0-121.0","63c2fa5b78993a3a14e5e1c3","63c2fa5b78993a3a14e5e1c3_20240212","","","8","143"
"14542","0","html-button-response","122","1115275","0.0-122.0","63c2fa5b78993a3a14e5e1c3","63c2fa5b78993a3a14e5e1c3_20240212","","","8","152"
"2713","0","html-button-response","123","1118491","0.0-123.0","63c2fa5b78993a3a14e5e1c3","63c2fa5b78993a3a14e5e1c3_20240212","","","7","146"
"5159","0","html-button-response","124","1124162","0.0-124.0","63c2fa5b78993a3a14e5e1c3","63c2fa5b78993a3a14e5e1c3_20240212","","","7","141"
"9034","0","html-button-response","125","1133706","0.0-125.0","63c2fa5b78993a3a14e5e1c3","63c2fa5b78993a3a14e5e1c3_20240212","","","7","147"
"3603","0","html-button-response","126","1137826","0.0-126.0","63c2fa5b78993a3a14e5e1c3","63c2fa5b78993a3a14e5e1c3_20240212","","","7","132"
"18159","0","html-button-response","127","1156498","0.0-127.0","63c2fa5b78993a3a14e5e1c3","63c2fa5b78993a3a14e5e1c3_20240212","","","8","87"
"2886","0","html-button-response","128","1159890","0.0-128.0","63c2fa5b78993a3a14e5e1c3","63c2fa5b78993a3a14e5e1c3_20240212","","","8","139"
"10890","0","html-button-response","129","1171282","0.0-129.0","63c2fa5b78993a3a14e5e1c3","63c2fa5b78993a3a14e5e1c3_20240212","","","",""
"7670","0","html-button-response","130","1179467","0.0-130.0","63c2fa5b78993a3a14e5e1c3","63c2fa5b78993a3a14e5e1c3_20240212","","","9","66"
"6633","0","html-button-response","131","1186603","0.0-131.0","63c2fa5b78993a3a14e5e1c3","63c2fa5b78993a3a14e5e1c3_20240212","","","9","17"
"174050","0","html-button-response","132","1361155","0.0-132.0","63c2fa5b78993a3a14e5e1c3","63c2fa5b78993a3a14e5e1c3_20240212","","","9","2"
"8394","0","html-button-response","133","1370051","0.0-133.0","63c2fa5b78993a3a14e5e1c3","63c2fa5b78993a3a14e5e1c3_20240212","","","7","12"
"6641","0","html-button-response","134","1377195","0.0-134.0","63c2fa5b78993a3a14e5e1c3","63c2fa5b78993a3a14e5e1c3_20240212","","","7","9"
"3291","0","html-button-response","135","1380987","0.0-135.0","63c2fa5b78993a3a14e5e1c3","63c2fa5b78993a3a14e5e1c3_20240212","","","9","14"
"4820","0","html-button-response","136","1386323","0.0-136.0","63c2fa5b78993a3a14e5e1c3","63c2fa5b78993a3a14e5e1c3_20240212","","","8","118"
"3470","0","html-button-response","137","1390307","0.0-137.0","63c2fa5b78993a3a14e5e1c3","63c2fa5b78993a3a14e5e1c3_20240212","","","9","7"
"3676","0","html-button-response","138","1394491","0.0-138.0","63c2fa5b78993a3a14e5e1c3","63c2fa5b78993a3a14e5e1c3_20240212","","","9","16"
"3402","0","html-button-response","139","1398403","0.0-139.0","63c2fa5b78993a3a14e5e1c3","63c2fa5b78993a3a14e5e1c3_20240212","","","9","126"
"4675","0","html-button-response","140","1403578","0.0-140.0","63c2fa5b78993a3a14e5e1c3","63c2fa5b78993a3a14e5e1c3_20240212","","","9","116"
"3761","0","html-button-response","141","1407850","0.0-141.0","63c2fa5b78993a3a14e5e1c3","63c2fa5b78993a3a14e5e1c3_20240212","","","8","57"
"3708","0","html-button-response","142","1412066","0.0-142.0","63c2fa5b78993a3a14e5e1c3","63c2fa5b78993a3a14e5e1c3_20240212","","","8","128"
"4626","0","html-button-response","143","1417194","0.0-143.0","63c2fa5b78993a3a14e5e1c3","63c2fa5b78993a3a14e5e1c3_20240212","","","7","58"
"5850","0","html-button-response","144","1423554","0.0-144.0","63c2fa5b78993a3a14e5e1c3","63c2fa5b78993a3a14e5e1c3_20240212","","","6","63"
"17478","0","html-button-response","145","1441546","0.0-145.0","63c2fa5b78993a3a14e5e1c3","63c2fa5b78993a3a14e5e1c3_20240212","","","8","13"
"7591","0","html-button-response","146","1449650","0.0-146.0","63c2fa5b78993a3a14e5e1c3","63c2fa5b78993a3a14e5e1c3_20240212","","","8","109"
"8847","0","html-button-response","147","1459010","0.0-147.0","63c2fa5b78993a3a14e5e1c3","63c2fa5b78993a3a14e5e1c3_20240212","","","9","120"
"10649","0","html-button-response","148","1470163","0.0-148.0","63c2fa5b78993a3a14e5e1c3","63c2fa5b78993a3a14e5e1c3_20240212","","","9","64"
"7326","0","html-button-response","149","1478003","0.0-149.0","63c2fa5b78993a3a14e5e1c3","63c2fa5b78993a3a14e5e1c3_20240212","","","9","18"
"6016","0","html-button-response","150","1484523","0.0-150.0","63c2fa5b78993a3a14e5e1c3","63c2fa5b78993a3a14e5e1c3_20240212","","","9","123"
"5036","0","html-button-response","151","1490067","0.0-151.0","63c2fa5b78993a3a14e5e1c3","63c2fa5b78993a3a14e5e1c3_20240212","","","9","124"
"5332","0","html-button-response","152","1495915","0.0-152.0","63c2fa5b78993a3a14e5e1c3","63c2fa5b78993a3a14e5e1c3_20240212","","","7","70"
"3551","0","html-button-response","153","1499979","0.0-153.0","63c2fa5b78993a3a14e5e1c3","63c2fa5b78993a3a14e5e1c3_20240212","","","9","110"
"3532","0","html-button-response","154","1504027","0.0-154.0","63c2fa5b78993a3a14e5e1c3","63c2fa5b78993a3a14e5e1c3_20240212","","","9","61"
"5871","0","html-button-response","155","1510405","0.0-155.0","63c2fa5b78993a3a14e5e1c3","63c2fa5b78993a3a14e5e1c3_20240212","","","8","59"
"4734","0","html-button-response","156","1515643","0.0-156.0","63c2fa5b78993a3a14e5e1c3","63c2fa5b78993a3a14e5e1c3_20240212","","","9","129"
"6120","0","html-button-response","157","1522267","0.0-157.0","63c2fa5b78993a3a14e5e1c3","63c2fa5b78993a3a14e5e1c3_20240212","","","4","1"
"7064","0","html-button-response","158","1529834","0.0-158.0","63c2fa5b78993a3a14e5e1c3","63c2fa5b78993a3a14e5e1c3_20240212","","","7","71"
"4676","0","html-button-response","159","1535018","0.0-159.0","63c2fa5b78993a3a14e5e1c3","63c2fa5b78993a3a14e5e1c3_20240212","","","9","113"
"3586","0","html-button-response","160","1539106","0.0-160.0","63c2fa5b78993a3a14e5e1c3","63c2fa5b78993a3a14e5e1c3_20240212","","","9","131"
"3500","0","html-button-response","161","1543114","0.0-161.0","63c2fa5b78993a3a14e5e1c3","63c2fa5b78993a3a14e5e1c3_20240212","","","5","10"
"4323","0","html-button-response","162","1547946","0.0-162.0","63c2fa5b78993a3a14e5e1c3","63c2fa5b78993a3a14e5e1c3_20240212","","","8","56"
"5117","0","html-button-response","163","1553578","0.0-163.0","63c2fa5b78993a3a14e5e1c3","63c2fa5b78993a3a14e5e1c3_20240212","","","9","130"
"5346","0","html-button-response","164","1559434","0.0-164.0","63c2fa5b78993a3a14e5e1c3","63c2fa5b78993a3a14e5e1c3_20240212","","","9","117"
"5957","0","html-button-response","165","1565898","0.0-165.0","63c2fa5b78993a3a14e5e1c3","63c2fa5b78993a3a14e5e1c3_20240212","","","4","68"
"4293","0","html-button-response","166","1570706","0.0-166.0","63c2fa5b78993a3a14e5e1c3","63c2fa5b78993a3a14e5e1c3_20240212","","","9","112"
"3850","0","html-button-response","167","1575066","0.0-167.0","63c2fa5b78993a3a14e5e1c3","63c2fa5b78993a3a14e5e1c3_20240212","","","7","55"
"4091","0","html-button-response","168","1579666","0.0-168.0","63c2fa5b78993a3a14e5e1c3","63c2fa5b78993a3a14e5e1c3_20240212","","","9","65"
"21948","0","html-button-response","169","1602130","0.0-169.0","63c2fa5b78993a3a14e5e1c3","63c2fa5b78993a3a14e5e1c3_20240212","","","7","11"
"13837","0","html-button-response","170","1616474","0.0-170.0","63c2fa5b78993a3a14e5e1c3","63c2fa5b78993a3a14e5e1c3_20240212","","","9","127"
"3901","0","html-button-response","171","1620882","0.0-171.0","63c2fa5b78993a3a14e5e1c3","63c2fa5b78993a3a14e5e1c3_20240212","","","9","69"
"7359","0","html-button-response","172","1628746","0.0-172.0","63c2fa5b78993a3a14e5e1c3","63c2fa5b78993a3a14e5e1c3_20240212","","","9","67"
"4041","0","html-button-response","173","1633298","0.0-173.0","63c2fa5b78993a3a14e5e1c3","63c2fa5b78993a3a14e5e1c3_20240212","","","9","119"
"4093","0","html-button-response","174","1637898","0.0-174.0","63c2fa5b78993a3a14e5e1c3","63c2fa5b78993a3a14e5e1c3_20240212","","","3","60"
"6682","0","html-button-response","175","1645082","0.0-175.0","63c2fa5b78993a3a14e5e1c3","63c2fa5b78993a3a14e5e1c3_20240212","","","7","6"
"6345","0","html-button-response","176","1651938","0.0-176.0","63c2fa5b78993a3a14e5e1c3","63c2fa5b78993a3a14e5e1c3_20240212","","","9","114"
"9742","0","html-button-response","177","1662195","0.0-177.0","63c2fa5b78993a3a14e5e1c3","63c2fa5b78993a3a14e5e1c3_20240212","","","9","122"
"5341","0","html-button-response","178","1668043","0.0-178.0","63c2fa5b78993a3a14e5e1c3","63c2fa5b78993a3a14e5e1c3_20240212","","","8","8"
"4478","0","html-button-response","179","1673027","0.0-179.0","63c2fa5b78993a3a14e5e1c3","63c2fa5b78993a3a14e5e1c3_20240212","","","7","4"
"5054","0","html-button-response","180","1678587","0.0-180.0","63c2fa5b78993a3a14e5e1c3","63c2fa5b78993a3a14e5e1c3_20240212","","","7","3"
"4229","0","html-button-response","181","1683323","0.0-181.0","63c2fa5b78993a3a14e5e1c3","63c2fa5b78993a3a14e5e1c3_20240212","","","8","62"
"3317","0","html-button-response","182","1687155","0.0-182.0","63c2fa5b78993a3a14e5e1c3","63c2fa5b78993a3a14e5e1c3_20240212","","","9","115"
"3809","0","html-button-response","183","1691467","0.0-183.0","63c2fa5b78993a3a14e5e1c3","63c2fa5b78993a3a14e5e1c3_20240212","","","8","72"
"4251","0","html-button-response","184","1696227","0.0-184.0","63c2fa5b78993a3a14e5e1c3","63c2fa5b78993a3a14e5e1c3_20240212","","","9","121"
"4721","0","html-button-response","185","1701451","0.0-185.0","63c2fa5b78993a3a14e5e1c3","63c2fa5b78993a3a14e5e1c3_20240212","","","6","15"
"8535","0","html-button-response","186","1710499","0.0-186.0","63c2fa5b78993a3a14e5e1c3","63c2fa5b78993a3a14e5e1c3_20240212","","","9","125"
"4122","0","html-button-response","187","1715131","0.0-187.0","63c2fa5b78993a3a14e5e1c3","63c2fa5b78993a3a14e5e1c3_20240212","","","9","111"
"4990","0","html-button-response","188","1720635","0.0-188.0","63c2fa5b78993a3a14e5e1c3","63c2fa5b78993a3a14e5e1c3_20240212","","","9","5"
"4476","0","html-button-response","189","1725619","0.0-189.0","63c2fa5b78993a3a14e5e1c3","63c2fa5b78993a3a14e5e1c3_20240212","","Thank you. You have reached the end. 
                       <br>Click the button below to reveal your compensation.
                        <br><br>","",""
