"rt","response","trial_type","trial_index","time_elapsed","internal_node_id","part_ID","ID_DATE","screen_id","stimulus","rating","img_id"
"101078","0","html-button-response","0","101076","0.0-0.0","5def2693ac00aa5c27166356","5def2693ac00aa5c27166356_20240212","","","",""
"131598","[object Object]","survey-html-form","1","233176","0.0-1.0","5def2693ac00aa5c27166356","5def2693ac00aa5c27166356_20240212","prolific_id_page","","",""
"14611","0","html-button-response","2","247790","0.0-2.0","5def2693ac00aa5c27166356","5def2693ac00aa5c27166356_20240212","","","",""
"1633","0","html-button-response","3","249928","0.0-3.0","5def2693ac00aa5c27166356","5def2693ac00aa5c27166356_20240212","","
<div>
Great! You will now go on to rate the faces.
<br><br>
</div>
","",""
"4397","0","html-button-response","4","254834","0.0-4.0","5def2693ac00aa5c27166356","5def2693ac00aa5c27166356_20240212","","","8","22"
"2036","0","html-button-response","5","257373","0.0-5.0","5def2693ac00aa5c27166356","5def2693ac00aa5c27166356_20240212","","","8","142"
"2681","0","html-button-response","6","260558","0.0-6.0","5def2693ac00aa5c27166356","5def2693ac00aa5c27166356_20240212","","","9","88"
"2643","0","html-button-response","7","263710","0.0-7.0","5def2693ac00aa5c27166356","5def2693ac00aa5c27166356_20240212","","","2","20"
"2654","0","html-button-response","8","266869","0.0-8.0","5def2693ac00aa5c27166356","5def2693ac00aa5c27166356_20240212","","","9","85"
"2975","0","html-button-response","9","270348","0.0-9.0","5def2693ac00aa5c27166356","5def2693ac00aa5c27166356_20240212","","","9","178"
"2720","0","html-button-response","10","273575","0.0-10.0","5def2693ac00aa5c27166356","5def2693ac00aa5c27166356_20240212","","","7","30"
"1961","0","html-button-response","11","276041","0.0-11.0","5def2693ac00aa5c27166356","5def2693ac00aa5c27166356_20240212","","","7","32"
"2742","0","html-button-response","12","279287","0.0-12.0","5def2693ac00aa5c27166356","5def2693ac00aa5c27166356_20240212","","","5","36"
"1921","0","html-button-response","13","281714","0.0-13.0","5def2693ac00aa5c27166356","5def2693ac00aa5c27166356_20240212","","","9","75"
"1886","0","html-button-response","14","284106","0.0-14.0","5def2693ac00aa5c27166356","5def2693ac00aa5c27166356_20240212","","","9","73"
"1754","0","html-button-response","15","286364","0.0-15.0","5def2693ac00aa5c27166356","5def2693ac00aa5c27166356_20240212","","","5","34"
"4282","0","html-button-response","16","291152","0.0-16.0","5def2693ac00aa5c27166356","5def2693ac00aa5c27166356_20240212","","","9","84"
"4336","0","html-button-response","17","295993","0.0-17.0","5def2693ac00aa5c27166356","5def2693ac00aa5c27166356_20240212","","","9","86"
"2382","0","html-button-response","18","298878","0.0-18.0","5def2693ac00aa5c27166356","5def2693ac00aa5c27166356_20240212","","","8","151"
"2012","0","html-button-response","19","301395","0.0-19.0","5def2693ac00aa5c27166356","5def2693ac00aa5c27166356_20240212","","","8","143"
"2732","0","html-button-response","20","304632","0.0-20.0","5def2693ac00aa5c27166356","5def2693ac00aa5c27166356_20240212","","","7","24"
"2541","0","html-button-response","21","307676","0.0-21.0","5def2693ac00aa5c27166356","5def2693ac00aa5c27166356_20240212","","","9","153"
"1962","0","html-button-response","22","310143","0.0-22.0","5def2693ac00aa5c27166356","5def2693ac00aa5c27166356_20240212","","","8","141"
"2497","0","html-button-response","23","313143","0.0-23.0","5def2693ac00aa5c27166356","5def2693ac00aa5c27166356_20240212","","","8","154"
"2947","0","html-button-response","24","316593","0.0-24.0","5def2693ac00aa5c27166356","5def2693ac00aa5c27166356_20240212","","","9","134"
"2288","0","html-button-response","25","319390","0.0-25.0","5def2693ac00aa5c27166356","5def2693ac00aa5c27166356_20240212","","","9","77"
"2730","0","html-button-response","26","322624","0.0-26.0","5def2693ac00aa5c27166356","5def2693ac00aa5c27166356_20240212","","","9","140"
"2201","0","html-button-response","27","325328","0.0-27.0","5def2693ac00aa5c27166356","5def2693ac00aa5c27166356_20240212","","","8","179"
"1822","0","html-button-response","28","327655","0.0-28.0","5def2693ac00aa5c27166356","5def2693ac00aa5c27166356_20240212","","","9","79"
"2057","0","html-button-response","29","330217","0.0-29.0","5def2693ac00aa5c27166356","5def2693ac00aa5c27166356_20240212","","","9","145"
"2871","0","html-button-response","30","333591","0.0-30.0","5def2693ac00aa5c27166356","5def2693ac00aa5c27166356_20240212","","","2","33"
"2049","0","html-button-response","31","336147","0.0-31.0","5def2693ac00aa5c27166356","5def2693ac00aa5c27166356_20240212","","","9","81"
"2624","0","html-button-response","32","339275","0.0-32.0","5def2693ac00aa5c27166356","5def2693ac00aa5c27166356_20240212","","","9","180"
"3006","0","html-button-response","33","342791","0.0-33.0","5def2693ac00aa5c27166356","5def2693ac00aa5c27166356_20240212","","","4","28"
"5026","0","html-button-response","34","348320","0.0-34.0","5def2693ac00aa5c27166356","5def2693ac00aa5c27166356_20240212","","","6","26"
"2127","0","html-button-response","35","350950","0.0-35.0","5def2693ac00aa5c27166356","5def2693ac00aa5c27166356_20240212","","","9","74"
"3141","0","html-button-response","36","354595","0.0-36.0","5def2693ac00aa5c27166356","5def2693ac00aa5c27166356_20240212","","","5","21"
"1860","0","html-button-response","37","356961","0.0-37.0","5def2693ac00aa5c27166356","5def2693ac00aa5c27166356_20240212","","","9","78"
"3583","0","html-button-response","38","361051","0.0-38.0","5def2693ac00aa5c27166356","5def2693ac00aa5c27166356_20240212","","","5","27"
"2059","0","html-button-response","39","363615","0.0-39.0","5def2693ac00aa5c27166356","5def2693ac00aa5c27166356_20240212","","","6","19"
"1936","0","html-button-response","40","366057","0.0-40.0","5def2693ac00aa5c27166356","5def2693ac00aa5c27166356_20240212","","","8","149"
"2174","0","html-button-response","41","368741","0.0-41.0","5def2693ac00aa5c27166356","5def2693ac00aa5c27166356_20240212","","","8","132"
"1850","0","html-button-response","42","371095","0.0-42.0","5def2693ac00aa5c27166356","5def2693ac00aa5c27166356_20240212","","","9","139"
"1926","0","html-button-response","43","373525","0.0-43.0","5def2693ac00aa5c27166356","5def2693ac00aa5c27166356_20240212","","","9","137"
"8834","0","html-button-response","44","382861","0.0-44.0","5def2693ac00aa5c27166356","5def2693ac00aa5c27166356_20240212","","","9","150"
"2113","0","html-button-response","45","385478","0.0-45.0","5def2693ac00aa5c27166356","5def2693ac00aa5c27166356_20240212","","","9","146"
"1612","0","html-button-response","46","387593","0.0-46.0","5def2693ac00aa5c27166356","5def2693ac00aa5c27166356_20240212","","","5","31"
"1983","0","html-button-response","47","390085","0.0-47.0","5def2693ac00aa5c27166356","5def2693ac00aa5c27166356_20240212","","","7","148"
"1812","0","html-button-response","48","392407","0.0-48.0","5def2693ac00aa5c27166356","5def2693ac00aa5c27166356_20240212","","","9","87"
"2772","0","html-button-response","49","395682","0.0-49.0","5def2693ac00aa5c27166356","5def2693ac00aa5c27166356_20240212","","","6","35"
"2128","0","html-button-response","50","398316","0.0-50.0","5def2693ac00aa5c27166356","5def2693ac00aa5c27166356_20240212","","","5","25"
"2252","0","html-button-response","51","401072","0.0-51.0","5def2693ac00aa5c27166356","5def2693ac00aa5c27166356_20240212","","","9","152"
"2921","0","html-button-response","52","404496","0.0-52.0","5def2693ac00aa5c27166356","5def2693ac00aa5c27166356_20240212","","","9","147"
"1853","0","html-button-response","53","406857","0.0-53.0","5def2693ac00aa5c27166356","5def2693ac00aa5c27166356_20240212","","","9","89"
"2007","0","html-button-response","54","409366","0.0-54.0","5def2693ac00aa5c27166356","5def2693ac00aa5c27166356_20240212","","","9","135"
"1970","0","html-button-response","55","411840","0.0-55.0","5def2693ac00aa5c27166356","5def2693ac00aa5c27166356_20240212","","","9","82"
"1794","0","html-button-response","56","414144","0.0-56.0","5def2693ac00aa5c27166356","5def2693ac00aa5c27166356_20240212","","","9","90"
"1978","0","html-button-response","57","416625","0.0-57.0","5def2693ac00aa5c27166356","5def2693ac00aa5c27166356_20240212","","","9","136"
"1746","0","html-button-response","58","418879","0.0-58.0","5def2693ac00aa5c27166356","5def2693ac00aa5c27166356_20240212","","","9","138"
"1612","0","html-button-response","59","420994","0.0-59.0","5def2693ac00aa5c27166356","5def2693ac00aa5c27166356_20240212","","","9","144"
"2028","0","html-button-response","60","423529","0.0-60.0","5def2693ac00aa5c27166356","5def2693ac00aa5c27166356_20240212","","","5","29"
"4533","0","html-button-response","61","428564","0.0-61.0","5def2693ac00aa5c27166356","5def2693ac00aa5c27166356_20240212","","","5","83"
"2087","0","html-button-response","62","431157","0.0-62.0","5def2693ac00aa5c27166356","5def2693ac00aa5c27166356_20240212","","","8","133"
"2403","0","html-button-response","63","434065","0.0-63.0","5def2693ac00aa5c27166356","5def2693ac00aa5c27166356_20240212","","","6","23"
"2061","0","html-button-response","64","436629","0.0-64.0","5def2693ac00aa5c27166356","5def2693ac00aa5c27166356_20240212","","","9","80"
"4767","0","html-button-response","65","441899","0.0-65.0","5def2693ac00aa5c27166356","5def2693ac00aa5c27166356_20240212","","","9","76"
"6650","0","html-button-response","66","449055","0.0-66.0","5def2693ac00aa5c27166356","5def2693ac00aa5c27166356_20240212","","","",""
"4040","0","html-button-response","67","453605","0.0-67.0","5def2693ac00aa5c27166356","5def2693ac00aa5c27166356_20240212","","","8","101"
"3567","0","html-button-response","68","457678","0.0-68.0","5def2693ac00aa5c27166356","5def2693ac00aa5c27166356_20240212","","","7","167"
"2411","0","html-button-response","69","460597","0.0-69.0","5def2693ac00aa5c27166356","5def2693ac00aa5c27166356_20240212","","","5","46"
"2319","0","html-button-response","70","463425","0.0-70.0","5def2693ac00aa5c27166356","5def2693ac00aa5c27166356_20240212","","","8","104"
"1763","0","html-button-response","71","465693","0.0-71.0","5def2693ac00aa5c27166356","5def2693ac00aa5c27166356_20240212","","","7","166"
"3676","0","html-button-response","72","469872","0.0-72.0","5def2693ac00aa5c27166356","5def2693ac00aa5c27166356_20240212","","","8","102"
"3644","0","html-button-response","73","474019","0.0-73.0","5def2693ac00aa5c27166356","5def2693ac00aa5c27166356_20240212","","","3","43"
"2238","0","html-button-response","74","476765","0.0-74.0","5def2693ac00aa5c27166356","5def2693ac00aa5c27166356_20240212","","","3","38"
"3891","0","html-button-response","75","481161","0.0-75.0","5def2693ac00aa5c27166356","5def2693ac00aa5c27166356_20240212","","","7","177"
"3574","0","html-button-response","76","485241","0.0-76.0","5def2693ac00aa5c27166356","5def2693ac00aa5c27166356_20240212","","","5","155"
"2476","0","html-button-response","77","488221","0.0-77.0","5def2693ac00aa5c27166356","5def2693ac00aa5c27166356_20240212","","","7","172"
"4539","0","html-button-response","78","493264","0.0-78.0","5def2693ac00aa5c27166356","5def2693ac00aa5c27166356_20240212","","","6","98"
"2551","0","html-button-response","79","496321","0.0-79.0","5def2693ac00aa5c27166356","5def2693ac00aa5c27166356_20240212","","","7","157"
"2120","0","html-button-response","80","498944","0.0-80.0","5def2693ac00aa5c27166356","5def2693ac00aa5c27166356_20240212","","","6","158"
"2971","0","html-button-response","81","502420","0.0-81.0","5def2693ac00aa5c27166356","5def2693ac00aa5c27166356_20240212","","","2","52"
"2142","0","html-button-response","82","505066","0.0-82.0","5def2693ac00aa5c27166356","5def2693ac00aa5c27166356_20240212","","","2","50"
"1943","0","html-button-response","83","507517","0.0-83.0","5def2693ac00aa5c27166356","5def2693ac00aa5c27166356_20240212","","","5","176"
"1989","0","html-button-response","84","510016","0.0-84.0","5def2693ac00aa5c27166356","5def2693ac00aa5c27166356_20240212","","","6","171"
"1976","0","html-button-response","85","512495","0.0-85.0","5def2693ac00aa5c27166356","5def2693ac00aa5c27166356_20240212","","","6","159"
"2540","0","html-button-response","86","515539","0.0-86.0","5def2693ac00aa5c27166356","5def2693ac00aa5c27166356_20240212","","","4","51"
"2073","0","html-button-response","87","518118","0.0-87.0","5def2693ac00aa5c27166356","5def2693ac00aa5c27166356_20240212","","","5","181"
"2086","0","html-button-response","88","520710","0.0-88.0","5def2693ac00aa5c27166356","5def2693ac00aa5c27166356_20240212","","","8","160"
"2589","0","html-button-response","89","523808","0.0-89.0","5def2693ac00aa5c27166356","5def2693ac00aa5c27166356_20240212","","","5","183"
"2396","0","html-button-response","90","526708","0.0-90.0","5def2693ac00aa5c27166356","5def2693ac00aa5c27166356_20240212","","","6","99"
"2417","0","html-button-response","91","529634","0.0-91.0","5def2693ac00aa5c27166356","5def2693ac00aa5c27166356_20240212","","","6","170"
"2073","0","html-button-response","92","532215","0.0-92.0","5def2693ac00aa5c27166356","5def2693ac00aa5c27166356_20240212","","","5","42"
"3377","0","html-button-response","93","536096","0.0-93.0","5def2693ac00aa5c27166356","5def2693ac00aa5c27166356_20240212","","","6","175"
"2494","0","html-button-response","94","539098","0.0-94.0","5def2693ac00aa5c27166356","5def2693ac00aa5c27166356_20240212","","","5","106"
"1769","0","html-button-response","95","541371","0.0-95.0","5def2693ac00aa5c27166356","5def2693ac00aa5c27166356_20240212","","","8","100"
"2557","0","html-button-response","96","544434","0.0-96.0","5def2693ac00aa5c27166356","5def2693ac00aa5c27166356_20240212","","","2","45"
"2685","0","html-button-response","97","547623","0.0-97.0","5def2693ac00aa5c27166356","5def2693ac00aa5c27166356_20240212","","","5","47"
"1886","0","html-button-response","98","550013","0.0-98.0","5def2693ac00aa5c27166356","5def2693ac00aa5c27166356_20240212","","","7","156"
"2073","0","html-button-response","99","552591","0.0-99.0","5def2693ac00aa5c27166356","5def2693ac00aa5c27166356_20240212","","","5","41"
"3511","0","html-button-response","100","556605","0.0-100.0","5def2693ac00aa5c27166356","5def2693ac00aa5c27166356_20240212","","","1","39"
"1704","0","html-button-response","101","558813","0.0-101.0","5def2693ac00aa5c27166356","5def2693ac00aa5c27166356_20240212","","","9","94"
"2983","0","html-button-response","102","562302","0.0-102.0","5def2693ac00aa5c27166356","5def2693ac00aa5c27166356_20240212","","","5","93"
"2771","0","html-button-response","103","565580","0.0-103.0","5def2693ac00aa5c27166356","5def2693ac00aa5c27166356_20240212","","","6","173"
"2852","0","html-button-response","104","568938","0.0-104.0","5def2693ac00aa5c27166356","5def2693ac00aa5c27166356_20240212","","","1","53"
"1857","0","html-button-response","105","571299","0.0-105.0","5def2693ac00aa5c27166356","5def2693ac00aa5c27166356_20240212","","","5","162"
"3596","0","html-button-response","106","575399","0.0-106.0","5def2693ac00aa5c27166356","5def2693ac00aa5c27166356_20240212","","","9","107"
"1873","0","html-button-response","107","577779","0.0-107.0","5def2693ac00aa5c27166356","5def2693ac00aa5c27166356_20240212","","","9","97"
"4122","0","html-button-response","108","582411","0.0-108.0","5def2693ac00aa5c27166356","5def2693ac00aa5c27166356_20240212","","","6","161"
"2193","0","html-button-response","109","585113","0.0-109.0","5def2693ac00aa5c27166356","5def2693ac00aa5c27166356_20240212","","","5","91"
"2012","0","html-button-response","110","587635","0.0-110.0","5def2693ac00aa5c27166356","5def2693ac00aa5c27166356_20240212","","","6","95"
"1768","0","html-button-response","111","589907","0.0-111.0","5def2693ac00aa5c27166356","5def2693ac00aa5c27166356_20240212","","","5","49"
"2001","0","html-button-response","112","592412","0.0-112.0","5def2693ac00aa5c27166356","5def2693ac00aa5c27166356_20240212","","","5","182"
"2283","0","html-button-response","113","595201","0.0-113.0","5def2693ac00aa5c27166356","5def2693ac00aa5c27166356_20240212","","","5","168"
"3825","0","html-button-response","114","599529","0.0-114.0","5def2693ac00aa5c27166356","5def2693ac00aa5c27166356_20240212","","","5","165"
"3945","0","html-button-response","115","603977","0.0-115.0","5def2693ac00aa5c27166356","5def2693ac00aa5c27166356_20240212","","","7","40"
"2728","0","html-button-response","116","607209","0.0-116.0","5def2693ac00aa5c27166356","5def2693ac00aa5c27166356_20240212","","","7","163"
"1738","0","html-button-response","117","609451","0.0-117.0","5def2693ac00aa5c27166356","5def2693ac00aa5c27166356_20240212","","","7","164"
"2044","0","html-button-response","118","612000","0.0-118.0","5def2693ac00aa5c27166356","5def2693ac00aa5c27166356_20240212","","","1","37"
"4347","0","html-button-response","119","616850","0.0-119.0","5def2693ac00aa5c27166356","5def2693ac00aa5c27166356_20240212","","","6","108"
"2364","0","html-button-response","120","619720","0.0-120.0","5def2693ac00aa5c27166356","5def2693ac00aa5c27166356_20240212","","","5","174"
"1749","0","html-button-response","121","621973","0.0-121.0","5def2693ac00aa5c27166356","5def2693ac00aa5c27166356_20240212","","","8","92"
"2330","0","html-button-response","122","624810","0.0-122.0","5def2693ac00aa5c27166356","5def2693ac00aa5c27166356_20240212","","","9","103"
"2143","0","html-button-response","123","627461","0.0-123.0","5def2693ac00aa5c27166356","5def2693ac00aa5c27166356_20240212","","","2","44"
"4781","0","html-button-response","124","632748","0.0-124.0","5def2693ac00aa5c27166356","5def2693ac00aa5c27166356_20240212","","","6","105"
"2407","0","html-button-response","125","635664","0.0-125.0","5def2693ac00aa5c27166356","5def2693ac00aa5c27166356_20240212","","","5","48"
"2831","0","html-button-response","126","639004","0.0-126.0","5def2693ac00aa5c27166356","5def2693ac00aa5c27166356_20240212","","","2","54"
"1890","0","html-button-response","127","641404","0.0-127.0","5def2693ac00aa5c27166356","5def2693ac00aa5c27166356_20240212","","","7","169"
"3088","0","html-button-response","128","644997","0.0-128.0","5def2693ac00aa5c27166356","5def2693ac00aa5c27166356_20240212","","","9","96"
"6462","0","html-button-response","129","651966","0.0-129.0","5def2693ac00aa5c27166356","5def2693ac00aa5c27166356_20240212","","","",""
"3777","0","html-button-response","130","656248","0.0-130.0","5def2693ac00aa5c27166356","5def2693ac00aa5c27166356_20240212","","","9","3"
"3644","0","html-button-response","131","660395","0.0-131.0","5def2693ac00aa5c27166356","5def2693ac00aa5c27166356_20240212","","","2","12"
"2212","0","html-button-response","132","663117","0.0-132.0","5def2693ac00aa5c27166356","5def2693ac00aa5c27166356_20240212","","","9","114"
"3080","0","html-button-response","133","666703","0.0-133.0","5def2693ac00aa5c27166356","5def2693ac00aa5c27166356_20240212","","","8","16"
"3443","0","html-button-response","134","670656","0.0-134.0","5def2693ac00aa5c27166356","5def2693ac00aa5c27166356_20240212","","","9","10"
"1850","0","html-button-response","135","673014","0.0-135.0","5def2693ac00aa5c27166356","5def2693ac00aa5c27166356_20240212","","","9","125"
"5330","0","html-button-response","136","678849","0.0-136.0","5def2693ac00aa5c27166356","5def2693ac00aa5c27166356_20240212","","","9","62"
"2258","0","html-button-response","137","681611","0.0-137.0","5def2693ac00aa5c27166356","5def2693ac00aa5c27166356_20240212","","","9","112"
"2403","0","html-button-response","138","684518","0.0-138.0","5def2693ac00aa5c27166356","5def2693ac00aa5c27166356_20240212","","","9","55"
"1615","0","html-button-response","139","686637","0.0-139.0","5def2693ac00aa5c27166356","5def2693ac00aa5c27166356_20240212","","","9","123"
"2060","0","html-button-response","140","689200","0.0-140.0","5def2693ac00aa5c27166356","5def2693ac00aa5c27166356_20240212","","","9","6"
"2542","0","html-button-response","141","692246","0.0-141.0","5def2693ac00aa5c27166356","5def2693ac00aa5c27166356_20240212","","","9","67"
"1647","0","html-button-response","142","694398","0.0-142.0","5def2693ac00aa5c27166356","5def2693ac00aa5c27166356_20240212","","","9","71"
"2725","0","html-button-response","143","697631","0.0-143.0","5def2693ac00aa5c27166356","5def2693ac00aa5c27166356_20240212","","","1","60"
"2922","0","html-button-response","144","701057","0.0-144.0","5def2693ac00aa5c27166356","5def2693ac00aa5c27166356_20240212","","","3","118"
"1901","0","html-button-response","145","703466","0.0-145.0","5def2693ac00aa5c27166356","5def2693ac00aa5c27166356_20240212","","","9","120"
"1642","0","html-button-response","146","705611","0.0-146.0","5def2693ac00aa5c27166356","5def2693ac00aa5c27166356_20240212","","","9","131"
"1585","0","html-button-response","147","707699","0.0-147.0","5def2693ac00aa5c27166356","5def2693ac00aa5c27166356_20240212","","","9","61"
"1483","0","html-button-response","148","709687","0.0-148.0","5def2693ac00aa5c27166356","5def2693ac00aa5c27166356_20240212","","","9","117"
"1800","0","html-button-response","149","711992","0.0-149.0","5def2693ac00aa5c27166356","5def2693ac00aa5c27166356_20240212","","","9","58"
"3586","0","html-button-response","150","716087","0.0-150.0","5def2693ac00aa5c27166356","5def2693ac00aa5c27166356_20240212","","","7","64"
"1876","0","html-button-response","151","718467","0.0-151.0","5def2693ac00aa5c27166356","5def2693ac00aa5c27166356_20240212","","","9","69"
"2081","0","html-button-response","152","721053","0.0-152.0","5def2693ac00aa5c27166356","5def2693ac00aa5c27166356_20240212","","","9","109"
"1561","0","html-button-response","153","723118","0.0-153.0","5def2693ac00aa5c27166356","5def2693ac00aa5c27166356_20240212","","","9","59"
"1758","0","html-button-response","154","725385","0.0-154.0","5def2693ac00aa5c27166356","5def2693ac00aa5c27166356_20240212","","","9","121"
"1568","0","html-button-response","155","727456","0.0-155.0","5def2693ac00aa5c27166356","5def2693ac00aa5c27166356_20240212","","","9","122"
"1472","0","html-button-response","156","729436","0.0-156.0","5def2693ac00aa5c27166356","5def2693ac00aa5c27166356_20240212","","","9","119"
"2429","0","html-button-response","157","732373","0.0-157.0","5def2693ac00aa5c27166356","5def2693ac00aa5c27166356_20240212","","","9","111"
"1598","0","html-button-response","158","734473","0.0-158.0","5def2693ac00aa5c27166356","5def2693ac00aa5c27166356_20240212","","","9","110"
"1958","0","html-button-response","159","736933","0.0-159.0","5def2693ac00aa5c27166356","5def2693ac00aa5c27166356_20240212","","","9","66"
"2020","0","html-button-response","160","739459","0.0-160.0","5def2693ac00aa5c27166356","5def2693ac00aa5c27166356_20240212","","","9","116"
"2194","0","html-button-response","161","742160","0.0-161.0","5def2693ac00aa5c27166356","5def2693ac00aa5c27166356_20240212","","","9","65"
"1723","0","html-button-response","162","744389","0.0-162.0","5def2693ac00aa5c27166356","5def2693ac00aa5c27166356_20240212","","","9","72"
"2968","0","html-button-response","163","747860","0.0-163.0","5def2693ac00aa5c27166356","5def2693ac00aa5c27166356_20240212","","","1","1"
"1686","0","html-button-response","164","750049","0.0-164.0","5def2693ac00aa5c27166356","5def2693ac00aa5c27166356_20240212","","","9","57"
"4037","0","html-button-response","165","754595","0.0-165.0","5def2693ac00aa5c27166356","5def2693ac00aa5c27166356_20240212","","","4","11"
"3730","0","html-button-response","166","758831","0.0-166.0","5def2693ac00aa5c27166356","5def2693ac00aa5c27166356_20240212","","","7","2"
"2309","0","html-button-response","167","761650","0.0-167.0","5def2693ac00aa5c27166356","5def2693ac00aa5c27166356_20240212","","","9","124"
"7824","0","html-button-response","168","769978","0.0-168.0","5def2693ac00aa5c27166356","5def2693ac00aa5c27166356_20240212","","","8","68"
"3315","0","html-button-response","169","773799","0.0-169.0","5def2693ac00aa5c27166356","5def2693ac00aa5c27166356_20240212","","","3","63"
"7112","0","html-button-response","170","781415","0.0-170.0","5def2693ac00aa5c27166356","5def2693ac00aa5c27166356_20240212","","","9","7"
"2574","0","html-button-response","171","784498","0.0-171.0","5def2693ac00aa5c27166356","5def2693ac00aa5c27166356_20240212","","","9","56"
"1661","0","html-button-response","172","786663","0.0-172.0","5def2693ac00aa5c27166356","5def2693ac00aa5c27166356_20240212","","","9","113"
"1876","0","html-button-response","173","789041","0.0-173.0","5def2693ac00aa5c27166356","5def2693ac00aa5c27166356_20240212","","","9","70"
"2453","0","html-button-response","174","791999","0.0-174.0","5def2693ac00aa5c27166356","5def2693ac00aa5c27166356_20240212","","","9","129"
"5454","0","html-button-response","175","797956","0.0-175.0","5def2693ac00aa5c27166356","5def2693ac00aa5c27166356_20240212","","","9","17"
"3313","0","html-button-response","176","801774","0.0-176.0","5def2693ac00aa5c27166356","5def2693ac00aa5c27166356_20240212","","","9","14"
"2301","0","html-button-response","177","804584","0.0-177.0","5def2693ac00aa5c27166356","5def2693ac00aa5c27166356_20240212","","","9","128"
"4618","0","html-button-response","178","809709","0.0-178.0","5def2693ac00aa5c27166356","5def2693ac00aa5c27166356_20240212","","","2","9"
"6491","0","html-button-response","179","816704","0.0-179.0","5def2693ac00aa5c27166356","5def2693ac00aa5c27166356_20240212","","","9","130"
"2029","0","html-button-response","180","819242","0.0-180.0","5def2693ac00aa5c27166356","5def2693ac00aa5c27166356_20240212","","","9","5"
"1681","0","html-button-response","181","821433","0.0-181.0","5def2693ac00aa5c27166356","5def2693ac00aa5c27166356_20240212","","","9","15"
"1619","0","html-button-response","182","823557","0.0-182.0","5def2693ac00aa5c27166356","5def2693ac00aa5c27166356_20240212","","","9","18"
"3464","0","html-button-response","183","827525","0.0-183.0","5def2693ac00aa5c27166356","5def2693ac00aa5c27166356_20240212","","","9","4"
"2316","0","html-button-response","184","830343","0.0-184.0","5def2693ac00aa5c27166356","5def2693ac00aa5c27166356_20240212","","","4","13"
"2231","0","html-button-response","185","833079","0.0-185.0","5def2693ac00aa5c27166356","5def2693ac00aa5c27166356_20240212","","","9","115"
"2603","0","html-button-response","186","836184","0.0-186.0","5def2693ac00aa5c27166356","5def2693ac00aa5c27166356_20240212","","","9","8"
"1722","0","html-button-response","187","838410","0.0-187.0","5def2693ac00aa5c27166356","5def2693ac00aa5c27166356_20240212","","","9","126"
"1561","0","html-button-response","188","840476","0.0-188.0","5def2693ac00aa5c27166356","5def2693ac00aa5c27166356_20240212","","","9","127"
"1078","0","html-button-response","189","842061","0.0-189.0","5def2693ac00aa5c27166356","5def2693ac00aa5c27166356_20240212","","Thank you. You have reached the end. 
                       <br>Click the button below to reveal your compensation.
                        <br><br>","",""
