rt,response,trial_type,trial_index,time_elapsed,internal_node_id,part_ID,ID_DATE,screen_id,stimulus,rating,img_id
13213,0,html-button-response,0,13217,0.0-0.0,659aba9fce23a5b8af24fb5a,659aba9fce23a5b8af24fb5a_20240212,,,,
9645,[object Object],survey-html-form,1,23365,0.0-1.0,659aba9fce23a5b8af24fb5a,659aba9fce23a5b8af24fb5a_20240212,prolific_id_page,,,
10469,0,html-button-response,2,33835,0.0-2.0,659aba9fce23a5b8af24fb5a,659aba9fce23a5b8af24fb5a_20240212,,,,
1563,0,html-button-response,3,35900,0.0-3.0,659aba9fce23a5b8af24fb5a,659aba9fce23a5b8af24fb5a_20240212,,"
<div>
Great! You will now go on to rate the faces.
<br><br>
</div>
",,
7279,0,html-button-response,4,43682,0.0-4.0,659aba9fce23a5b8af24fb5a,659aba9fce23a5b8af24fb5a_20240212,,,6,9
6947,0,html-button-response,5,51132,0.0-5.0,659aba9fce23a5b8af24fb5a,659aba9fce23a5b8af24fb5a_20240212,,,8,63
3182,0,html-button-response,6,54816,0.0-6.0,659aba9fce23a5b8af24fb5a,659aba9fce23a5b8af24fb5a_20240212,,,7,114
2048,0,html-button-response,7,57366,0.0-7.0,659aba9fce23a5b8af24fb5a,659aba9fce23a5b8af24fb5a_20240212,,,7,129
2464,0,html-button-response,8,60332,0.0-8.0,659aba9fce23a5b8af24fb5a,659aba9fce23a5b8af24fb5a_20240212,,,7,1
1882,0,html-button-response,9,62716,0.0-9.0,659aba9fce23a5b8af24fb5a,659aba9fce23a5b8af24fb5a_20240212,,,7,61
2130,0,html-button-response,10,65349,0.0-10.0,659aba9fce23a5b8af24fb5a,659aba9fce23a5b8af24fb5a_20240212,,,7,58
2565,0,html-button-response,11,68416,0.0-11.0,659aba9fce23a5b8af24fb5a,659aba9fce23a5b8af24fb5a_20240212,,,7,110
2598,0,html-button-response,12,71515,0.0-12.0,659aba9fce23a5b8af24fb5a,659aba9fce23a5b8af24fb5a_20240212,,,6,16
2698,0,html-button-response,13,74715,0.0-13.0,659aba9fce23a5b8af24fb5a,659aba9fce23a5b8af24fb5a_20240212,,,7,72
2015,0,html-button-response,14,77232,0.0-14.0,659aba9fce23a5b8af24fb5a,659aba9fce23a5b8af24fb5a_20240212,,,7,69
2564,0,html-button-response,15,80299,0.0-15.0,659aba9fce23a5b8af24fb5a,659aba9fce23a5b8af24fb5a_20240212,,,7,2
2080,0,html-button-response,16,82882,0.0-16.0,659aba9fce23a5b8af24fb5a,659aba9fce23a5b8af24fb5a_20240212,,,7,111
1999,0,html-button-response,17,85383,0.0-17.0,659aba9fce23a5b8af24fb5a,659aba9fce23a5b8af24fb5a_20240212,,,7,117
2082,0,html-button-response,18,87967,0.0-18.0,659aba9fce23a5b8af24fb5a,659aba9fce23a5b8af24fb5a_20240212,,,7,15
2130,0,html-button-response,19,90599,0.0-19.0,659aba9fce23a5b8af24fb5a,659aba9fce23a5b8af24fb5a_20240212,,,7,112
5382,0,html-button-response,20,96483,0.0-20.0,659aba9fce23a5b8af24fb5a,659aba9fce23a5b8af24fb5a_20240212,,,7,4
1914,0,html-button-response,21,98899,0.0-21.0,659aba9fce23a5b8af24fb5a,659aba9fce23a5b8af24fb5a_20240212,,,7,55
2148,0,html-button-response,22,101549,0.0-22.0,659aba9fce23a5b8af24fb5a,659aba9fce23a5b8af24fb5a_20240212,,,6,3
2164,0,html-button-response,23,104216,0.0-23.0,659aba9fce23a5b8af24fb5a,659aba9fce23a5b8af24fb5a_20240212,,,7,124
2164,0,html-button-response,24,106883,0.0-24.0,659aba9fce23a5b8af24fb5a,659aba9fce23a5b8af24fb5a_20240212,,,7,109
1947,0,html-button-response,25,109333,0.0-25.0,659aba9fce23a5b8af24fb5a,659aba9fce23a5b8af24fb5a_20240212,,,7,57
2598,0,html-button-response,26,112433,0.0-26.0,659aba9fce23a5b8af24fb5a,659aba9fce23a5b8af24fb5a_20240212,,,5,12
1998,0,html-button-response,27,114933,0.0-27.0,659aba9fce23a5b8af24fb5a,659aba9fce23a5b8af24fb5a_20240212,,,7,64
2181,0,html-button-response,28,117616,0.0-28.0,659aba9fce23a5b8af24fb5a,659aba9fce23a5b8af24fb5a_20240212,,,7,66
5048,0,html-button-response,29,123167,0.0-29.0,659aba9fce23a5b8af24fb5a,659aba9fce23a5b8af24fb5a_20240212,,,7,5
2131,0,html-button-response,30,125799,0.0-30.0,659aba9fce23a5b8af24fb5a,659aba9fce23a5b8af24fb5a_20240212,,,7,59
1998,0,html-button-response,31,128300,0.0-31.0,659aba9fce23a5b8af24fb5a,659aba9fce23a5b8af24fb5a_20240212,,,7,120
1914,0,html-button-response,32,130716,0.0-32.0,659aba9fce23a5b8af24fb5a,659aba9fce23a5b8af24fb5a_20240212,,,7,56
2581,0,html-button-response,33,133799,0.0-33.0,659aba9fce23a5b8af24fb5a,659aba9fce23a5b8af24fb5a_20240212,,,6,14
2748,0,html-button-response,34,137050,0.0-34.0,659aba9fce23a5b8af24fb5a,659aba9fce23a5b8af24fb5a_20240212,,,7,17
2146,0,html-button-response,35,139699,0.0-35.0,659aba9fce23a5b8af24fb5a,659aba9fce23a5b8af24fb5a_20240212,,,7,7
2082,0,html-button-response,36,142283,0.0-36.0,659aba9fce23a5b8af24fb5a,659aba9fce23a5b8af24fb5a_20240212,,,7,115
3181,0,html-button-response,37,145966,0.0-37.0,659aba9fce23a5b8af24fb5a,659aba9fce23a5b8af24fb5a_20240212,,,8,128
4531,0,html-button-response,38,151001,0.0-38.0,659aba9fce23a5b8af24fb5a,659aba9fce23a5b8af24fb5a_20240212,,,7,125
1962,0,html-button-response,39,153466,0.0-39.0,659aba9fce23a5b8af24fb5a,659aba9fce23a5b8af24fb5a_20240212,,,8,71
1998,0,html-button-response,40,155966,0.0-40.0,659aba9fce23a5b8af24fb5a,659aba9fce23a5b8af24fb5a_20240212,,,6,10
3348,0,html-button-response,41,159816,0.0-41.0,659aba9fce23a5b8af24fb5a,659aba9fce23a5b8af24fb5a_20240212,,,7,6
2064,0,html-button-response,42,162383,0.0-42.0,659aba9fce23a5b8af24fb5a,659aba9fce23a5b8af24fb5a_20240212,,,8,70
3015,0,html-button-response,43,165900,0.0-43.0,659aba9fce23a5b8af24fb5a,659aba9fce23a5b8af24fb5a_20240212,,,8,67
2214,0,html-button-response,44,168616,0.0-44.0,659aba9fce23a5b8af24fb5a,659aba9fce23a5b8af24fb5a_20240212,,,8,123
2448,0,html-button-response,45,171567,0.0-45.0,659aba9fce23a5b8af24fb5a,659aba9fce23a5b8af24fb5a_20240212,,,8,119
2681,0,html-button-response,46,174750,0.0-46.0,659aba9fce23a5b8af24fb5a,659aba9fce23a5b8af24fb5a_20240212,,,8,118
2233,0,html-button-response,47,177485,0.0-47.0,659aba9fce23a5b8af24fb5a,659aba9fce23a5b8af24fb5a_20240212,,,8,122
1996,0,html-button-response,48,179983,0.0-48.0,659aba9fce23a5b8af24fb5a,659aba9fce23a5b8af24fb5a_20240212,,,8,113
4031,0,html-button-response,49,184516,0.0-49.0,659aba9fce23a5b8af24fb5a,659aba9fce23a5b8af24fb5a_20240212,,,5,11
4331,0,html-button-response,50,189350,0.0-50.0,659aba9fce23a5b8af24fb5a,659aba9fce23a5b8af24fb5a_20240212,,,8,131
2231,0,html-button-response,51,192083,0.0-51.0,659aba9fce23a5b8af24fb5a,659aba9fce23a5b8af24fb5a_20240212,,,8,121
2764,0,html-button-response,52,195349,0.0-52.0,659aba9fce23a5b8af24fb5a,659aba9fce23a5b8af24fb5a_20240212,,,3,60
2465,0,html-button-response,53,198317,0.0-53.0,659aba9fce23a5b8af24fb5a,659aba9fce23a5b8af24fb5a_20240212,,,8,130
2615,0,html-button-response,54,201433,0.0-54.0,659aba9fce23a5b8af24fb5a,659aba9fce23a5b8af24fb5a_20240212,,,8,126
2298,0,html-button-response,55,204233,0.0-55.0,659aba9fce23a5b8af24fb5a,659aba9fce23a5b8af24fb5a_20240212,,,7,62
2680,0,html-button-response,56,207416,0.0-56.0,659aba9fce23a5b8af24fb5a,659aba9fce23a5b8af24fb5a_20240212,,,8,68
4815,0,html-button-response,57,212733,0.0-57.0,659aba9fce23a5b8af24fb5a,659aba9fce23a5b8af24fb5a_20240212,,,4,8
1964,0,html-button-response,58,215199,0.0-58.0,659aba9fce23a5b8af24fb5a,659aba9fce23a5b8af24fb5a_20240212,,,7,65
1915,0,html-button-response,59,217616,0.0-59.0,659aba9fce23a5b8af24fb5a,659aba9fce23a5b8af24fb5a_20240212,,,7,116
2631,0,html-button-response,60,220750,0.0-60.0,659aba9fce23a5b8af24fb5a,659aba9fce23a5b8af24fb5a_20240212,,,3,13
2165,0,html-button-response,61,223416,0.0-61.0,659aba9fce23a5b8af24fb5a,659aba9fce23a5b8af24fb5a_20240212,,,8,127
4132,0,html-button-response,62,228050,0.0-62.0,659aba9fce23a5b8af24fb5a,659aba9fce23a5b8af24fb5a_20240212,,,8,18
1681,0,html-button-response,63,230233,0.0-63.0,659aba9fce23a5b8af24fb5a,659aba9fce23a5b8af24fb5a_20240212,,,,
6298,0,html-button-response,64,237033,0.0-64.0,659aba9fce23a5b8af24fb5a,659aba9fce23a5b8af24fb5a_20240212,,,1,51
2381,0,html-button-response,65,239916,0.0-65.0,659aba9fce23a5b8af24fb5a,659aba9fce23a5b8af24fb5a_20240212,,,8,104
2864,0,html-button-response,66,243283,0.0-66.0,659aba9fce23a5b8af24fb5a,659aba9fce23a5b8af24fb5a_20240212,,,1,48
2365,0,html-button-response,67,246150,0.0-67.0,659aba9fce23a5b8af24fb5a,659aba9fce23a5b8af24fb5a_20240212,,,4,168
2698,0,html-button-response,68,249350,0.0-68.0,659aba9fce23a5b8af24fb5a,659aba9fce23a5b8af24fb5a_20240212,,,2,53
2698,0,html-button-response,69,252550,0.0-69.0,659aba9fce23a5b8af24fb5a,659aba9fce23a5b8af24fb5a_20240212,,,3,155
4666,0,html-button-response,70,257717,0.0-70.0,659aba9fce23a5b8af24fb5a,659aba9fce23a5b8af24fb5a_20240212,,,4,105
2733,0,html-button-response,71,260952,0.0-71.0,659aba9fce23a5b8af24fb5a,659aba9fce23a5b8af24fb5a_20240212,,,5,182
3396,0,html-button-response,72,264851,0.0-72.0,659aba9fce23a5b8af24fb5a,659aba9fce23a5b8af24fb5a_20240212,,,3,44
3364,0,html-button-response,73,268716,0.0-73.0,659aba9fce23a5b8af24fb5a,659aba9fce23a5b8af24fb5a_20240212,,,2,39
2683,0,html-button-response,74,271901,0.0-74.0,659aba9fce23a5b8af24fb5a,659aba9fce23a5b8af24fb5a_20240212,,,3,37
5030,0,html-button-response,75,277433,0.0-75.0,659aba9fce23a5b8af24fb5a,659aba9fce23a5b8af24fb5a_20240212,,,4,162
3715,0,html-button-response,76,281650,0.0-76.0,659aba9fce23a5b8af24fb5a,659aba9fce23a5b8af24fb5a_20240212,,,2,158
3648,0,html-button-response,77,285801,0.0-77.0,659aba9fce23a5b8af24fb5a,659aba9fce23a5b8af24fb5a_20240212,,,3,45
3215,0,html-button-response,78,289517,0.0-78.0,659aba9fce23a5b8af24fb5a,659aba9fce23a5b8af24fb5a_20240212,,,5,176
2598,0,html-button-response,79,292617,0.0-79.0,659aba9fce23a5b8af24fb5a,659aba9fce23a5b8af24fb5a_20240212,,,3,93
2530,0,html-button-response,80,295650,0.0-80.0,659aba9fce23a5b8af24fb5a,659aba9fce23a5b8af24fb5a_20240212,,,3,166
3098,0,html-button-response,81,299251,0.0-81.0,659aba9fce23a5b8af24fb5a,659aba9fce23a5b8af24fb5a_20240212,,,2,99
5431,0,html-button-response,82,305184,0.0-82.0,659aba9fce23a5b8af24fb5a,659aba9fce23a5b8af24fb5a_20240212,,,3,177
2882,0,html-button-response,83,308567,0.0-83.0,659aba9fce23a5b8af24fb5a,659aba9fce23a5b8af24fb5a_20240212,,,9,94
2381,0,html-button-response,84,311450,0.0-84.0,659aba9fce23a5b8af24fb5a,659aba9fce23a5b8af24fb5a_20240212,,,9,100
2148,0,html-button-response,85,314100,0.0-85.0,659aba9fce23a5b8af24fb5a,659aba9fce23a5b8af24fb5a_20240212,,,2,52
2031,0,html-button-response,86,316633,0.0-86.0,659aba9fce23a5b8af24fb5a,659aba9fce23a5b8af24fb5a_20240212,,,5,175
8032,0,html-button-response,87,325167,0.0-87.0,659aba9fce23a5b8af24fb5a,659aba9fce23a5b8af24fb5a_20240212,,,3,174
2915,0,html-button-response,88,328584,0.0-88.0,659aba9fce23a5b8af24fb5a,659aba9fce23a5b8af24fb5a_20240212,,,2,181
2247,0,html-button-response,89,331333,0.0-89.0,659aba9fce23a5b8af24fb5a,659aba9fce23a5b8af24fb5a_20240212,,,8,96
2216,0,html-button-response,90,334051,0.0-90.0,659aba9fce23a5b8af24fb5a,659aba9fce23a5b8af24fb5a_20240212,,,3,50
5647,0,html-button-response,91,340200,0.0-91.0,659aba9fce23a5b8af24fb5a,659aba9fce23a5b8af24fb5a_20240212,,,3,159
2782,0,html-button-response,92,343484,0.0-92.0,659aba9fce23a5b8af24fb5a,659aba9fce23a5b8af24fb5a_20240212,,,9,101
4298,0,html-button-response,93,348284,0.0-93.0,659aba9fce23a5b8af24fb5a,659aba9fce23a5b8af24fb5a_20240212,,,2,170
3181,0,html-button-response,94,351967,0.0-94.0,659aba9fce23a5b8af24fb5a,659aba9fce23a5b8af24fb5a_20240212,,,3,161
2199,0,html-button-response,95,354668,0.0-95.0,659aba9fce23a5b8af24fb5a,659aba9fce23a5b8af24fb5a_20240212,,,2,108
2630,0,html-button-response,96,357801,0.0-96.0,659aba9fce23a5b8af24fb5a,659aba9fce23a5b8af24fb5a_20240212,,,4,160
2449,0,html-button-response,97,360751,0.0-97.0,659aba9fce23a5b8af24fb5a,659aba9fce23a5b8af24fb5a_20240212,,,4,167
4297,0,html-button-response,98,365551,0.0-98.0,659aba9fce23a5b8af24fb5a,659aba9fce23a5b8af24fb5a_20240212,,,3,40
2832,0,html-button-response,99,368884,0.0-99.0,659aba9fce23a5b8af24fb5a,659aba9fce23a5b8af24fb5a_20240212,,,2,38
2331,0,html-button-response,100,371717,0.0-100.0,659aba9fce23a5b8af24fb5a,659aba9fce23a5b8af24fb5a_20240212,,,2,91
2498,0,html-button-response,101,374718,0.0-101.0,659aba9fce23a5b8af24fb5a,659aba9fce23a5b8af24fb5a_20240212,,,2,103
2151,0,html-button-response,102,377370,0.0-102.0,659aba9fce23a5b8af24fb5a,659aba9fce23a5b8af24fb5a_20240212,,,3,102
2163,0,html-button-response,103,380034,0.0-103.0,659aba9fce23a5b8af24fb5a,659aba9fce23a5b8af24fb5a_20240212,,,3,95
2481,0,html-button-response,104,383017,0.0-104.0,659aba9fce23a5b8af24fb5a,659aba9fce23a5b8af24fb5a_20240212,,,2,172
2098,0,html-button-response,105,385616,0.0-105.0,659aba9fce23a5b8af24fb5a,659aba9fce23a5b8af24fb5a_20240212,,,2,43
2998,0,html-button-response,106,389116,0.0-106.0,659aba9fce23a5b8af24fb5a,659aba9fce23a5b8af24fb5a_20240212,,,2,171
1982,0,html-button-response,107,391599,0.0-107.0,659aba9fce23a5b8af24fb5a,659aba9fce23a5b8af24fb5a_20240212,,,3,49
2865,0,html-button-response,108,394965,0.0-108.0,659aba9fce23a5b8af24fb5a,659aba9fce23a5b8af24fb5a_20240212,,,8,97
1966,0,html-button-response,109,397432,0.0-109.0,659aba9fce23a5b8af24fb5a,659aba9fce23a5b8af24fb5a_20240212,,,3,47
2214,0,html-button-response,110,400148,0.0-110.0,659aba9fce23a5b8af24fb5a,659aba9fce23a5b8af24fb5a_20240212,,,3,54
3432,0,html-button-response,111,404080,0.0-111.0,659aba9fce23a5b8af24fb5a,659aba9fce23a5b8af24fb5a_20240212,,,4,156
4248,0,html-button-response,112,408831,0.0-112.0,659aba9fce23a5b8af24fb5a,659aba9fce23a5b8af24fb5a_20240212,,,4,173
5398,0,html-button-response,113,414730,0.0-113.0,659aba9fce23a5b8af24fb5a,659aba9fce23a5b8af24fb5a_20240212,,,3,46
2315,0,html-button-response,114,417547,0.0-114.0,659aba9fce23a5b8af24fb5a,659aba9fce23a5b8af24fb5a_20240212,,,3,163
2548,0,html-button-response,115,420596,0.0-115.0,659aba9fce23a5b8af24fb5a,659aba9fce23a5b8af24fb5a_20240212,,,8,92
2214,0,html-button-response,116,423313,0.0-116.0,659aba9fce23a5b8af24fb5a,659aba9fce23a5b8af24fb5a_20240212,,,9,107
3815,0,html-button-response,117,427630,0.0-117.0,659aba9fce23a5b8af24fb5a,659aba9fce23a5b8af24fb5a_20240212,,,6,106
3364,0,html-button-response,118,431497,0.0-118.0,659aba9fce23a5b8af24fb5a,659aba9fce23a5b8af24fb5a_20240212,,,6,157
4614,0,html-button-response,119,436613,0.0-119.0,659aba9fce23a5b8af24fb5a,659aba9fce23a5b8af24fb5a_20240212,,,5,41
2232,0,html-button-response,120,439347,0.0-120.0,659aba9fce23a5b8af24fb5a,659aba9fce23a5b8af24fb5a_20240212,,,5,42
3881,0,html-button-response,121,443730,0.0-121.0,659aba9fce23a5b8af24fb5a,659aba9fce23a5b8af24fb5a_20240212,,,5,165
3264,0,html-button-response,122,447496,0.0-122.0,659aba9fce23a5b8af24fb5a,659aba9fce23a5b8af24fb5a_20240212,,,6,164
1998,0,html-button-response,123,449996,0.0-123.0,659aba9fce23a5b8af24fb5a,659aba9fce23a5b8af24fb5a_20240212,,,5,183
3214,0,html-button-response,124,453713,0.0-124.0,659aba9fce23a5b8af24fb5a,659aba9fce23a5b8af24fb5a_20240212,,,2,98
2131,0,html-button-response,125,456347,0.0-125.0,659aba9fce23a5b8af24fb5a,659aba9fce23a5b8af24fb5a_20240212,,,5,169
1283,0,html-button-response,126,458131,0.0-126.0,659aba9fce23a5b8af24fb5a,659aba9fce23a5b8af24fb5a_20240212,,,,
5563,0,html-button-response,127,464196,0.0-127.0,659aba9fce23a5b8af24fb5a,659aba9fce23a5b8af24fb5a_20240212,,,6,34
2148,0,html-button-response,128,466846,0.0-128.0,659aba9fce23a5b8af24fb5a,659aba9fce23a5b8af24fb5a_20240212,,,9,132
1967,0,html-button-response,129,469314,0.0-129.0,659aba9fce23a5b8af24fb5a,659aba9fce23a5b8af24fb5a_20240212,,,9,134
1998,0,html-button-response,130,471814,0.0-130.0,659aba9fce23a5b8af24fb5a,659aba9fce23a5b8af24fb5a_20240212,,,9,82
2097,0,html-button-response,131,474413,0.0-131.0,659aba9fce23a5b8af24fb5a,659aba9fce23a5b8af24fb5a_20240212,,,9,179
1981,0,html-button-response,132,476897,0.0-132.0,659aba9fce23a5b8af24fb5a,659aba9fce23a5b8af24fb5a_20240212,,,9,77
2681,0,html-button-response,133,480080,0.0-133.0,659aba9fce23a5b8af24fb5a,659aba9fce23a5b8af24fb5a_20240212,,,7,33
2715,0,html-button-response,134,483296,0.0-134.0,659aba9fce23a5b8af24fb5a,659aba9fce23a5b8af24fb5a_20240212,,,7,23
1915,0,html-button-response,135,485713,0.0-135.0,659aba9fce23a5b8af24fb5a,659aba9fce23a5b8af24fb5a_20240212,,,7,24
1714,0,html-button-response,136,487930,0.0-136.0,659aba9fce23a5b8af24fb5a,659aba9fce23a5b8af24fb5a_20240212,,,8,78
2016,0,html-button-response,137,490447,0.0-137.0,659aba9fce23a5b8af24fb5a,659aba9fce23a5b8af24fb5a_20240212,,,9,73
2481,0,html-button-response,138,493431,0.0-138.0,659aba9fce23a5b8af24fb5a,659aba9fce23a5b8af24fb5a_20240212,,,9,145
2880,0,html-button-response,139,496814,0.0-139.0,659aba9fce23a5b8af24fb5a,659aba9fce23a5b8af24fb5a_20240212,,,6,28
1830,0,html-button-response,140,499147,0.0-140.0,659aba9fce23a5b8af24fb5a,659aba9fce23a5b8af24fb5a_20240212,,,8,137
3581,0,html-button-response,141,503230,0.0-141.0,659aba9fce23a5b8af24fb5a,659aba9fce23a5b8af24fb5a_20240212,,,6,25
2382,0,html-button-response,142,506114,0.0-142.0,659aba9fce23a5b8af24fb5a,659aba9fce23a5b8af24fb5a_20240212,,,9,136
2131,0,html-button-response,143,508747,0.0-143.0,659aba9fce23a5b8af24fb5a,659aba9fce23a5b8af24fb5a_20240212,,,9,138
2098,0,html-button-response,144,511348,0.0-144.0,659aba9fce23a5b8af24fb5a,659aba9fce23a5b8af24fb5a_20240212,,,6,19
2064,0,html-button-response,145,513915,0.0-145.0,659aba9fce23a5b8af24fb5a,659aba9fce23a5b8af24fb5a_20240212,,,9,142
2013,0,html-button-response,146,516430,0.0-146.0,659aba9fce23a5b8af24fb5a,659aba9fce23a5b8af24fb5a_20240212,,,9,154
1915,0,html-button-response,147,518848,0.0-147.0,659aba9fce23a5b8af24fb5a,659aba9fce23a5b8af24fb5a_20240212,,,9,84
1981,0,html-button-response,148,521330,0.0-148.0,659aba9fce23a5b8af24fb5a,659aba9fce23a5b8af24fb5a_20240212,,,9,76
3131,0,html-button-response,149,524963,0.0-149.0,659aba9fce23a5b8af24fb5a,659aba9fce23a5b8af24fb5a_20240212,,,5,21
2048,0,html-button-response,150,527513,0.0-150.0,659aba9fce23a5b8af24fb5a,659aba9fce23a5b8af24fb5a_20240212,,,8,180
2198,0,html-button-response,151,530214,0.0-151.0,659aba9fce23a5b8af24fb5a,659aba9fce23a5b8af24fb5a_20240212,,,9,74
2165,0,html-button-response,152,532881,0.0-152.0,659aba9fce23a5b8af24fb5a,659aba9fce23a5b8af24fb5a_20240212,,,9,133
2981,0,html-button-response,153,536364,0.0-153.0,659aba9fce23a5b8af24fb5a,659aba9fce23a5b8af24fb5a_20240212,,,6,27
1948,0,html-button-response,154,538814,0.0-154.0,659aba9fce23a5b8af24fb5a,659aba9fce23a5b8af24fb5a_20240212,,,8,153
2231,0,html-button-response,155,541547,0.0-155.0,659aba9fce23a5b8af24fb5a,659aba9fce23a5b8af24fb5a_20240212,,,5,35
2047,0,html-button-response,156,544096,0.0-156.0,659aba9fce23a5b8af24fb5a,659aba9fce23a5b8af24fb5a_20240212,,,7,147
3182,0,html-button-response,157,547780,0.0-157.0,659aba9fce23a5b8af24fb5a,659aba9fce23a5b8af24fb5a_20240212,,,5,32
2065,0,html-button-response,158,550347,0.0-158.0,659aba9fce23a5b8af24fb5a,659aba9fce23a5b8af24fb5a_20240212,,,8,139
1915,0,html-button-response,159,552763,0.0-159.0,659aba9fce23a5b8af24fb5a,659aba9fce23a5b8af24fb5a_20240212,,,8,144
1883,0,html-button-response,160,555148,0.0-160.0,659aba9fce23a5b8af24fb5a,659aba9fce23a5b8af24fb5a_20240212,,,8,146
1948,0,html-button-response,161,557597,0.0-161.0,659aba9fce23a5b8af24fb5a,659aba9fce23a5b8af24fb5a_20240212,,,9,86
1882,0,html-button-response,162,559981,0.0-162.0,659aba9fce23a5b8af24fb5a,659aba9fce23a5b8af24fb5a_20240212,,,8,30
1681,0,html-button-response,163,562164,0.0-163.0,659aba9fce23a5b8af24fb5a,659aba9fce23a5b8af24fb5a_20240212,,,9,148
3864,0,html-button-response,164,566530,0.0-164.0,659aba9fce23a5b8af24fb5a,659aba9fce23a5b8af24fb5a_20240212,,,8,31
2065,0,html-button-response,165,569097,0.0-165.0,659aba9fce23a5b8af24fb5a,659aba9fce23a5b8af24fb5a_20240212,,,9,81
2015,0,html-button-response,166,571614,0.0-166.0,659aba9fce23a5b8af24fb5a,659aba9fce23a5b8af24fb5a_20240212,,,9,150
2082,0,html-button-response,167,574198,0.0-167.0,659aba9fce23a5b8af24fb5a,659aba9fce23a5b8af24fb5a_20240212,,,6,22
2164,0,html-button-response,168,576864,0.0-168.0,659aba9fce23a5b8af24fb5a,659aba9fce23a5b8af24fb5a_20240212,,,5,26
2565,0,html-button-response,169,579931,0.0-169.0,659aba9fce23a5b8af24fb5a,659aba9fce23a5b8af24fb5a_20240212,,,9,89
1832,0,html-button-response,170,582265,0.0-170.0,659aba9fce23a5b8af24fb5a,659aba9fce23a5b8af24fb5a_20240212,,,9,90
2080,0,html-button-response,171,584847,0.0-171.0,659aba9fce23a5b8af24fb5a,659aba9fce23a5b8af24fb5a_20240212,,,7,178
2132,0,html-button-response,172,587481,0.0-172.0,659aba9fce23a5b8af24fb5a,659aba9fce23a5b8af24fb5a_20240212,,,9,75
1980,0,html-button-response,173,589963,0.0-173.0,659aba9fce23a5b8af24fb5a,659aba9fce23a5b8af24fb5a_20240212,,,9,85
1933,0,html-button-response,174,592398,0.0-174.0,659aba9fce23a5b8af24fb5a,659aba9fce23a5b8af24fb5a_20240212,,,9,79
1780,0,html-button-response,175,594680,0.0-175.0,659aba9fce23a5b8af24fb5a,659aba9fce23a5b8af24fb5a_20240212,,,9,135
1949,0,html-button-response,176,597131,0.0-176.0,659aba9fce23a5b8af24fb5a,659aba9fce23a5b8af24fb5a_20240212,,,9,80
2465,0,html-button-response,177,600097,0.0-177.0,659aba9fce23a5b8af24fb5a,659aba9fce23a5b8af24fb5a_20240212,,,5,20
2281,0,html-button-response,178,602880,0.0-178.0,659aba9fce23a5b8af24fb5a,659aba9fce23a5b8af24fb5a_20240212,,,8,152
2649,0,html-button-response,179,606031,0.0-179.0,659aba9fce23a5b8af24fb5a,659aba9fce23a5b8af24fb5a_20240212,,,8,149
2314,0,html-button-response,180,608847,0.0-180.0,659aba9fce23a5b8af24fb5a,659aba9fce23a5b8af24fb5a_20240212,,,9,141
2349,0,html-button-response,181,611698,0.0-181.0,659aba9fce23a5b8af24fb5a,659aba9fce23a5b8af24fb5a_20240212,,,9,140
1963,0,html-button-response,182,614163,0.0-182.0,659aba9fce23a5b8af24fb5a,659aba9fce23a5b8af24fb5a_20240212,,,9,83
1933,0,html-button-response,183,616598,0.0-183.0,659aba9fce23a5b8af24fb5a,659aba9fce23a5b8af24fb5a_20240212,,,8,143
2130,0,html-button-response,184,619230,0.0-184.0,659aba9fce23a5b8af24fb5a,659aba9fce23a5b8af24fb5a_20240212,,,6,36
2099,0,html-button-response,185,621831,0.0-185.0,659aba9fce23a5b8af24fb5a,659aba9fce23a5b8af24fb5a_20240212,,,8,151
2148,0,html-button-response,186,624481,0.0-186.0,659aba9fce23a5b8af24fb5a,659aba9fce23a5b8af24fb5a_20240212,,,9,88
1931,0,html-button-response,187,626914,0.0-187.0,659aba9fce23a5b8af24fb5a,659aba9fce23a5b8af24fb5a_20240212,,,9,87
3199,0,html-button-response,188,630615,0.0-188.0,659aba9fce23a5b8af24fb5a,659aba9fce23a5b8af24fb5a_20240212,,,6,29
1615,0,html-button-response,189,632731,0.0-189.0,659aba9fce23a5b8af24fb5a,659aba9fce23a5b8af24fb5a_20240212,,"Thank you. You have reached the end. 
                       <br>Click the button below to reveal your compensation.
                        <br><br>",,