"rt","response","trial_type","trial_index","time_elapsed","internal_node_id","part_ID","ID_DATE","screen_id","stimulus","rating","img_id"
"100408","0","html-button-response","0","100409","0.0-0.0","57dab7f721d77800018e42fe","57dab7f721d77800018e42fe_20240212","","","",""
"5909","[object Object]","survey-html-form","1","106822","0.0-1.0","57dab7f721d77800018e42fe","57dab7f721d77800018e42fe_20240212","prolific_id_page","","",""
"31562","0","html-button-response","2","138385","0.0-2.0","57dab7f721d77800018e42fe","57dab7f721d77800018e42fe_20240212","","","",""
"893","0","html-button-response","3","139780","0.0-3.0","57dab7f721d77800018e42fe","57dab7f721d77800018e42fe_20240212","","
<div>
Great! You will now go on to rate the faces.
<br><br>
</div>
","",""
"2290","0","html-button-response","4","142583","0.0-4.0","57dab7f721d77800018e42fe","57dab7f721d77800018e42fe_20240212","","","8","180"
"1733","0","html-button-response","5","144818","0.0-5.0","57dab7f721d77800018e42fe","57dab7f721d77800018e42fe_20240212","","","6","25"
"6484","0","html-button-response","6","151806","0.0-6.0","57dab7f721d77800018e42fe","57dab7f721d77800018e42fe_20240212","","","5","86"
"2150","0","html-button-response","7","154458","0.0-7.0","57dab7f721d77800018e42fe","57dab7f721d77800018e42fe_20240212","","","5","29"
"1763","0","html-button-response","8","156726","0.0-8.0","57dab7f721d77800018e42fe","57dab7f721d77800018e42fe_20240212","","","8","132"
"1641","0","html-button-response","9","158868","0.0-9.0","57dab7f721d77800018e42fe","57dab7f721d77800018e42fe_20240212","","","7","179"
"1492","0","html-button-response","10","160863","0.0-10.0","57dab7f721d77800018e42fe","57dab7f721d77800018e42fe_20240212","","","8","134"
"2019","0","html-button-response","11","163386","0.0-11.0","57dab7f721d77800018e42fe","57dab7f721d77800018e42fe_20240212","","","9","140"
"2290","0","html-button-response","12","166178","0.0-12.0","57dab7f721d77800018e42fe","57dab7f721d77800018e42fe_20240212","","","6","83"
"3998","0","html-button-response","13","170678","0.0-13.0","57dab7f721d77800018e42fe","57dab7f721d77800018e42fe_20240212","","","7","151"
"1805","0","html-button-response","14","172983","0.0-14.0","57dab7f721d77800018e42fe","57dab7f721d77800018e42fe_20240212","","","9","73"
"2700","0","html-button-response","15","176185","0.0-15.0","57dab7f721d77800018e42fe","57dab7f721d77800018e42fe_20240212","","","6","32"
"2872","0","html-button-response","16","179564","0.0-16.0","57dab7f721d77800018e42fe","57dab7f721d77800018e42fe_20240212","","","5","27"
"3072","0","html-button-response","17","183139","0.0-17.0","57dab7f721d77800018e42fe","57dab7f721d77800018e42fe_20240212","","","7","150"
"2781","0","html-button-response","18","186424","0.0-18.0","57dab7f721d77800018e42fe","57dab7f721d77800018e42fe_20240212","","","7","84"
"1802","0","html-button-response","19","188730","0.0-19.0","57dab7f721d77800018e42fe","57dab7f721d77800018e42fe_20240212","","","4","22"
"2413","0","html-button-response","20","191645","0.0-20.0","57dab7f721d77800018e42fe","57dab7f721d77800018e42fe_20240212","","","5","154"
"2314","0","html-button-response","21","194459","0.0-21.0","57dab7f721d77800018e42fe","57dab7f721d77800018e42fe_20240212","","","6","136"
"1874","0","html-button-response","22","196848","0.0-22.0","57dab7f721d77800018e42fe","57dab7f721d77800018e42fe_20240212","","","8","135"
"5498","0","html-button-response","23","202849","0.0-23.0","57dab7f721d77800018e42fe","57dab7f721d77800018e42fe_20240212","","","8","137"
"1849","0","html-button-response","24","205200","0.0-24.0","57dab7f721d77800018e42fe","57dab7f721d77800018e42fe_20240212","","","9","90"
"2113","0","html-button-response","25","207823","0.0-25.0","57dab7f721d77800018e42fe","57dab7f721d77800018e42fe_20240212","","","3","33"
"2560","0","html-button-response","26","210885","0.0-26.0","57dab7f721d77800018e42fe","57dab7f721d77800018e42fe_20240212","","","8","133"
"1748","0","html-button-response","27","213134","0.0-27.0","57dab7f721d77800018e42fe","57dab7f721d77800018e42fe_20240212","","","2","20"
"3796","0","html-button-response","28","217431","0.0-28.0","57dab7f721d77800018e42fe","57dab7f721d77800018e42fe_20240212","","","7","149"
"1770","0","html-button-response","29","219704","0.0-29.0","57dab7f721d77800018e42fe","57dab7f721d77800018e42fe_20240212","","","8","148"
"1796","0","html-button-response","30","222003","0.0-30.0","57dab7f721d77800018e42fe","57dab7f721d77800018e42fe_20240212","","","2","34"
"6690","0","html-button-response","31","229196","0.0-31.0","57dab7f721d77800018e42fe","57dab7f721d77800018e42fe_20240212","","","7","80"
"1760","0","html-button-response","32","231458","0.0-32.0","57dab7f721d77800018e42fe","57dab7f721d77800018e42fe_20240212","","","9","85"
"1764","0","html-button-response","33","233726","0.0-33.0","57dab7f721d77800018e42fe","57dab7f721d77800018e42fe_20240212","","","8","153"
"2402","0","html-button-response","34","236634","0.0-34.0","57dab7f721d77800018e42fe","57dab7f721d77800018e42fe_20240212","","","8","144"
"3312","0","html-button-response","35","240447","0.0-35.0","57dab7f721d77800018e42fe","57dab7f721d77800018e42fe_20240212","","","8","142"
"2688","0","html-button-response","36","243636","0.0-36.0","57dab7f721d77800018e42fe","57dab7f721d77800018e42fe_20240212","","","4","23"
"2454","0","html-button-response","37","246596","0.0-37.0","57dab7f721d77800018e42fe","57dab7f721d77800018e42fe_20240212","","","2","35"
"4566","0","html-button-response","38","251666","0.0-38.0","57dab7f721d77800018e42fe","57dab7f721d77800018e42fe_20240212","","","2","36"
"2869","0","html-button-response","39","255039","0.0-39.0","57dab7f721d77800018e42fe","57dab7f721d77800018e42fe_20240212","","","5","24"
"2206","0","html-button-response","40","257751","0.0-40.0","57dab7f721d77800018e42fe","57dab7f721d77800018e42fe_20240212","","","7","76"
"1848","0","html-button-response","41","260106","0.0-41.0","57dab7f721d77800018e42fe","57dab7f721d77800018e42fe_20240212","","","4","21"
"3803","0","html-button-response","42","264424","0.0-42.0","57dab7f721d77800018e42fe","57dab7f721d77800018e42fe_20240212","","","8","75"
"2171","0","html-button-response","43","267097","0.0-43.0","57dab7f721d77800018e42fe","57dab7f721d77800018e42fe_20240212","","","7","138"
"1638","0","html-button-response","44","269238","0.0-44.0","57dab7f721d77800018e42fe","57dab7f721d77800018e42fe_20240212","","","8","139"
"2433","0","html-button-response","45","272171","0.0-45.0","57dab7f721d77800018e42fe","57dab7f721d77800018e42fe_20240212","","","5","87"
"2585","0","html-button-response","46","275261","0.0-46.0","57dab7f721d77800018e42fe","57dab7f721d77800018e42fe_20240212","","","7","143"
"3896","0","html-button-response","47","279662","0.0-47.0","57dab7f721d77800018e42fe","57dab7f721d77800018e42fe_20240212","","","1","19"
"2406","0","html-button-response","48","282569","0.0-48.0","57dab7f721d77800018e42fe","57dab7f721d77800018e42fe_20240212","","","7","74"
"2906","0","html-button-response","49","285976","0.0-49.0","57dab7f721d77800018e42fe","57dab7f721d77800018e42fe_20240212","","","8","145"
"6398","0","html-button-response","50","292879","0.0-50.0","57dab7f721d77800018e42fe","57dab7f721d77800018e42fe_20240212","","","7","89"
"3547","0","html-button-response","51","296931","0.0-51.0","57dab7f721d77800018e42fe","57dab7f721d77800018e42fe_20240212","","","5","31"
"1583","0","html-button-response","52","299017","0.0-52.0","57dab7f721d77800018e42fe","57dab7f721d77800018e42fe_20240212","","","7","147"
"2595","0","html-button-response","53","302113","0.0-53.0","57dab7f721d77800018e42fe","57dab7f721d77800018e42fe_20240212","","","7","141"
"1992","0","html-button-response","54","304613","0.0-54.0","57dab7f721d77800018e42fe","57dab7f721d77800018e42fe_20240212","","","6","30"
"1931","0","html-button-response","55","307060","0.0-55.0","57dab7f721d77800018e42fe","57dab7f721d77800018e42fe_20240212","","","8","79"
"10727","0","html-button-response","56","318291","0.0-56.0","57dab7f721d77800018e42fe","57dab7f721d77800018e42fe_20240212","","","7","88"
"1938","0","html-button-response","57","320730","0.0-57.0","57dab7f721d77800018e42fe","57dab7f721d77800018e42fe_20240212","","","2","26"
"6708","0","html-button-response","58","327940","0.0-58.0","57dab7f721d77800018e42fe","57dab7f721d77800018e42fe_20240212","","","4","77"
"4384","0","html-button-response","59","332824","0.0-59.0","57dab7f721d77800018e42fe","57dab7f721d77800018e42fe_20240212","","","7","78"
"1854","0","html-button-response","60","335181","0.0-60.0","57dab7f721d77800018e42fe","57dab7f721d77800018e42fe_20240212","","","8","152"
"3681","0","html-button-response","61","339369","0.0-61.0","57dab7f721d77800018e42fe","57dab7f721d77800018e42fe_20240212","","","6","82"
"1626","0","html-button-response","62","341509","0.0-62.0","57dab7f721d77800018e42fe","57dab7f721d77800018e42fe_20240212","","","8","81"
"2436","0","html-button-response","63","344451","0.0-63.0","57dab7f721d77800018e42fe","57dab7f721d77800018e42fe_20240212","","","7","146"
"2578","0","html-button-response","64","347546","0.0-64.0","57dab7f721d77800018e42fe","57dab7f721d77800018e42fe_20240212","","","4","28"
"3346","0","html-button-response","65","351396","0.0-65.0","57dab7f721d77800018e42fe","57dab7f721d77800018e42fe_20240212","","","7","178"
"1110","0","html-button-response","66","353009","0.0-66.0","57dab7f721d77800018e42fe","57dab7f721d77800018e42fe_20240212","","","",""
"7087","0","html-button-response","67","360601","0.0-67.0","57dab7f721d77800018e42fe","57dab7f721d77800018e42fe_20240212","","","4","13"
"2354","0","html-button-response","68","363458","0.0-68.0","57dab7f721d77800018e42fe","57dab7f721d77800018e42fe_20240212","","","8","128"
"4886","0","html-button-response","69","368845","0.0-69.0","57dab7f721d77800018e42fe","57dab7f721d77800018e42fe_20240212","","","5","71"
"1901","0","html-button-response","70","371249","0.0-70.0","57dab7f721d77800018e42fe","57dab7f721d77800018e42fe_20240212","","","8","124"
"1663","0","html-button-response","71","373413","0.0-71.0","57dab7f721d77800018e42fe","57dab7f721d77800018e42fe_20240212","","","8","130"
"2214","0","html-button-response","72","376131","0.0-72.0","57dab7f721d77800018e42fe","57dab7f721d77800018e42fe_20240212","","","8","115"
"1806","0","html-button-response","73","378439","0.0-73.0","57dab7f721d77800018e42fe","57dab7f721d77800018e42fe_20240212","","","9","120"
"1572","0","html-button-response","74","380517","0.0-74.0","57dab7f721d77800018e42fe","57dab7f721d77800018e42fe_20240212","","","9","57"
"2122","0","html-button-response","75","383142","0.0-75.0","57dab7f721d77800018e42fe","57dab7f721d77800018e42fe_20240212","","","9","117"
"2259","0","html-button-response","76","385902","0.0-76.0","57dab7f721d77800018e42fe","57dab7f721d77800018e42fe_20240212","","","3","17"
"3651","0","html-button-response","77","390053","0.0-77.0","57dab7f721d77800018e42fe","57dab7f721d77800018e42fe_20240212","","","4","63"
"3005","0","html-button-response","78","393560","0.0-78.0","57dab7f721d77800018e42fe","57dab7f721d77800018e42fe_20240212","","","5","56"
"2527","0","html-button-response","79","396589","0.0-79.0","57dab7f721d77800018e42fe","57dab7f721d77800018e42fe_20240212","","","6","6"
"2130","0","html-button-response","80","399219","0.0-80.0","57dab7f721d77800018e42fe","57dab7f721d77800018e42fe_20240212","","","8","113"
"1951","0","html-button-response","81","401680","0.0-81.0","57dab7f721d77800018e42fe","57dab7f721d77800018e42fe_20240212","","","7","59"
"1742","0","html-button-response","82","403923","0.0-82.0","57dab7f721d77800018e42fe","57dab7f721d77800018e42fe_20240212","","","7","127"
"2526","0","html-button-response","83","406953","0.0-83.0","57dab7f721d77800018e42fe","57dab7f721d77800018e42fe_20240212","","","2","68"
"1999","0","html-button-response","84","409453","0.0-84.0","57dab7f721d77800018e42fe","57dab7f721d77800018e42fe_20240212","","","7","118"
"1854","0","html-button-response","85","411811","0.0-85.0","57dab7f721d77800018e42fe","57dab7f721d77800018e42fe_20240212","","","8","125"
"1537","0","html-button-response","86","413850","0.0-86.0","57dab7f721d77800018e42fe","57dab7f721d77800018e42fe_20240212","","","8","122"
"2528","0","html-button-response","87","416885","0.0-87.0","57dab7f721d77800018e42fe","57dab7f721d77800018e42fe_20240212","","","2","70"
"2182","0","html-button-response","88","419570","0.0-88.0","57dab7f721d77800018e42fe","57dab7f721d77800018e42fe_20240212","","","7","69"
"3100","0","html-button-response","89","423174","0.0-89.0","57dab7f721d77800018e42fe","57dab7f721d77800018e42fe_20240212","","","6","15"
"1728","0","html-button-response","90","425413","0.0-90.0","57dab7f721d77800018e42fe","57dab7f721d77800018e42fe_20240212","","","7","61"
"3612","0","html-button-response","91","429528","0.0-91.0","57dab7f721d77800018e42fe","57dab7f721d77800018e42fe_20240212","","","7","111"
"2545","0","html-button-response","92","432575","0.0-92.0","57dab7f721d77800018e42fe","57dab7f721d77800018e42fe_20240212","","","6","109"
"4239","0","html-button-response","93","437324","0.0-93.0","57dab7f721d77800018e42fe","57dab7f721d77800018e42fe_20240212","","","2","9"
"2557","0","html-button-response","94","440382","0.0-94.0","57dab7f721d77800018e42fe","57dab7f721d77800018e42fe_20240212","","","6","67"
"1628","0","html-button-response","95","442511","0.0-95.0","57dab7f721d77800018e42fe","57dab7f721d77800018e42fe_20240212","","","4","55"
"2013","0","html-button-response","96","445024","0.0-96.0","57dab7f721d77800018e42fe","57dab7f721d77800018e42fe_20240212","","","9","5"
"1587","0","html-button-response","97","447113","0.0-97.0","57dab7f721d77800018e42fe","57dab7f721d77800018e42fe_20240212","","","9","112"
"1966","0","html-button-response","98","449589","0.0-98.0","57dab7f721d77800018e42fe","57dab7f721d77800018e42fe_20240212","","","1","3"
"1740","0","html-button-response","99","451836","0.0-99.0","57dab7f721d77800018e42fe","57dab7f721d77800018e42fe_20240212","","","7","126"
"2607","0","html-button-response","100","454949","0.0-100.0","57dab7f721d77800018e42fe","57dab7f721d77800018e42fe_20240212","","","5","62"
"1598","0","html-button-response","101","457046","0.0-101.0","57dab7f721d77800018e42fe","57dab7f721d77800018e42fe_20240212","","","8","131"
"2286","0","html-button-response","102","459839","0.0-102.0","57dab7f721d77800018e42fe","57dab7f721d77800018e42fe_20240212","","","6","4"
"2360","0","html-button-response","103","462705","0.0-103.0","57dab7f721d77800018e42fe","57dab7f721d77800018e42fe_20240212","","","7","14"
"2008","0","html-button-response","104","465222","0.0-104.0","57dab7f721d77800018e42fe","57dab7f721d77800018e42fe_20240212","","","7","58"
"3085","0","html-button-response","105","468820","0.0-105.0","57dab7f721d77800018e42fe","57dab7f721d77800018e42fe_20240212","","","8","116"
"2344","0","html-button-response","106","471667","0.0-106.0","57dab7f721d77800018e42fe","57dab7f721d77800018e42fe_20240212","","","7","7"
"1658","0","html-button-response","107","473827","0.0-107.0","57dab7f721d77800018e42fe","57dab7f721d77800018e42fe_20240212","","","8","121"
"2198","0","html-button-response","108","476528","0.0-108.0","57dab7f721d77800018e42fe","57dab7f721d77800018e42fe_20240212","","","6","1"
"1744","0","html-button-response","109","478776","0.0-109.0","57dab7f721d77800018e42fe","57dab7f721d77800018e42fe_20240212","","","4","10"
"3142","0","html-button-response","110","482418","0.0-110.0","57dab7f721d77800018e42fe","57dab7f721d77800018e42fe_20240212","","","7","16"
"1556","0","html-button-response","111","484489","0.0-111.0","57dab7f721d77800018e42fe","57dab7f721d77800018e42fe_20240212","","","8","129"
"2068","0","html-button-response","112","487058","0.0-112.0","57dab7f721d77800018e42fe","57dab7f721d77800018e42fe_20240212","","","7","123"
"2049","0","html-button-response","113","489609","0.0-113.0","57dab7f721d77800018e42fe","57dab7f721d77800018e42fe_20240212","","","8","8"
"12986","0","html-button-response","114","503100","0.0-114.0","57dab7f721d77800018e42fe","57dab7f721d77800018e42fe_20240212","","","4","2"
"2396","0","html-button-response","115","505998","0.0-115.0","57dab7f721d77800018e42fe","57dab7f721d77800018e42fe_20240212","","","8","119"
"2130","0","html-button-response","116","508633","0.0-116.0","57dab7f721d77800018e42fe","57dab7f721d77800018e42fe_20240212","","","7","65"
"3239","0","html-button-response","117","512375","0.0-117.0","57dab7f721d77800018e42fe","57dab7f721d77800018e42fe_20240212","","","3","12"
"2120","0","html-button-response","118","514997","0.0-118.0","57dab7f721d77800018e42fe","57dab7f721d77800018e42fe_20240212","","","7","72"
"1805","0","html-button-response","119","517303","0.0-119.0","57dab7f721d77800018e42fe","57dab7f721d77800018e42fe_20240212","","","1","64"
"2159","0","html-button-response","120","519968","0.0-120.0","57dab7f721d77800018e42fe","57dab7f721d77800018e42fe_20240212","","","6","114"
"1458","0","html-button-response","121","521932","0.0-121.0","57dab7f721d77800018e42fe","57dab7f721d77800018e42fe_20240212","","","8","110"
"1914","0","html-button-response","122","524347","0.0-122.0","57dab7f721d77800018e42fe","57dab7f721d77800018e42fe_20240212","","","8","18"
"1570","0","html-button-response","123","526420","0.0-123.0","57dab7f721d77800018e42fe","57dab7f721d77800018e42fe_20240212","","","1","60"
"4182","0","html-button-response","124","531111","0.0-124.0","57dab7f721d77800018e42fe","57dab7f721d77800018e42fe_20240212","","","8","66"
"2317","0","html-button-response","125","533930","0.0-125.0","57dab7f721d77800018e42fe","57dab7f721d77800018e42fe_20240212","","","3","11"
"717","0","html-button-response","126","535150","0.0-126.0","57dab7f721d77800018e42fe","57dab7f721d77800018e42fe_20240212","","","",""
"3604","0","html-button-response","127","539260","0.0-127.0","57dab7f721d77800018e42fe","57dab7f721d77800018e42fe_20240212","","","6","181"
"1681","0","html-button-response","128","541442","0.0-128.0","57dab7f721d77800018e42fe","57dab7f721d77800018e42fe_20240212","","","8","102"
"3196","0","html-button-response","129","545147","0.0-129.0","57dab7f721d77800018e42fe","57dab7f721d77800018e42fe_20240212","","","7","105"
"3546","0","html-button-response","130","549195","0.0-130.0","57dab7f721d77800018e42fe","57dab7f721d77800018e42fe_20240212","","","5","163"
"3783","0","html-button-response","131","553480","0.0-131.0","57dab7f721d77800018e42fe","57dab7f721d77800018e42fe_20240212","","","7","107"
"2370","0","html-button-response","132","556351","0.0-132.0","57dab7f721d77800018e42fe","57dab7f721d77800018e42fe_20240212","","","4","40"
"3358","0","html-button-response","133","560214","0.0-133.0","57dab7f721d77800018e42fe","57dab7f721d77800018e42fe_20240212","","","4","174"
"3744","0","html-button-response","134","564462","0.0-134.0","57dab7f721d77800018e42fe","57dab7f721d77800018e42fe_20240212","","","5","91"
"2276","0","html-button-response","135","567243","0.0-135.0","57dab7f721d77800018e42fe","57dab7f721d77800018e42fe_20240212","","","8","165"
"2527","0","html-button-response","136","570272","0.0-136.0","57dab7f721d77800018e42fe","57dab7f721d77800018e42fe_20240212","","","7","46"
"2463","0","html-button-response","137","573236","0.0-137.0","57dab7f721d77800018e42fe","57dab7f721d77800018e42fe_20240212","","","8","173"
"2178","0","html-button-response","138","575915","0.0-138.0","57dab7f721d77800018e42fe","57dab7f721d77800018e42fe_20240212","","","8","164"
"2016","0","html-button-response","139","578435","0.0-139.0","57dab7f721d77800018e42fe","57dab7f721d77800018e42fe_20240212","","","7","167"
"2223","0","html-button-response","140","581171","0.0-140.0","57dab7f721d77800018e42fe","57dab7f721d77800018e42fe_20240212","","","8","172"
"3120","0","html-button-response","141","584799","0.0-141.0","57dab7f721d77800018e42fe","57dab7f721d77800018e42fe_20240212","","","1","44"
"3480","0","html-button-response","142","588781","0.0-142.0","57dab7f721d77800018e42fe","57dab7f721d77800018e42fe_20240212","","","6","37"
"1707","0","html-button-response","143","590994","0.0-143.0","57dab7f721d77800018e42fe","57dab7f721d77800018e42fe_20240212","","","1","53"
"1830","0","html-button-response","144","593325","0.0-144.0","57dab7f721d77800018e42fe","57dab7f721d77800018e42fe_20240212","","","8","175"
"4988","0","html-button-response","145","598816","0.0-145.0","57dab7f721d77800018e42fe","57dab7f721d77800018e42fe_20240212","","","2","52"
"2330","0","html-button-response","146","601660","0.0-146.0","57dab7f721d77800018e42fe","57dab7f721d77800018e42fe_20240212","","","7","92"
"3295","0","html-button-response","147","605457","0.0-147.0","57dab7f721d77800018e42fe","57dab7f721d77800018e42fe_20240212","","","8","162"
"4146","0","html-button-response","148","610104","0.0-148.0","57dab7f721d77800018e42fe","57dab7f721d77800018e42fe_20240212","","","7","42"
"2038","0","html-button-response","149","612644","0.0-149.0","57dab7f721d77800018e42fe","57dab7f721d77800018e42fe_20240212","","","8","176"
"2347","0","html-button-response","150","615506","0.0-150.0","57dab7f721d77800018e42fe","57dab7f721d77800018e42fe_20240212","","","5","95"
"1821","0","html-button-response","151","617829","0.0-151.0","57dab7f721d77800018e42fe","57dab7f721d77800018e42fe_20240212","","","8","96"
"2474","0","html-button-response","152","620820","0.0-152.0","57dab7f721d77800018e42fe","57dab7f721d77800018e42fe_20240212","","","7","171"
"4427","0","html-button-response","153","625752","0.0-153.0","57dab7f721d77800018e42fe","57dab7f721d77800018e42fe_20240212","","","5","106"
"7499","0","html-button-response","154","633752","0.0-154.0","57dab7f721d77800018e42fe","57dab7f721d77800018e42fe_20240212","","","3","43"
"2152","0","html-button-response","155","636404","0.0-155.0","57dab7f721d77800018e42fe","57dab7f721d77800018e42fe_20240212","","","7","48"
"1782","0","html-button-response","156","638689","0.0-156.0","57dab7f721d77800018e42fe","57dab7f721d77800018e42fe_20240212","","","7","159"
"6280","0","html-button-response","157","645476","0.0-157.0","57dab7f721d77800018e42fe","57dab7f721d77800018e42fe_20240212","","","6","183"
"2211","0","html-button-response","158","648191","0.0-158.0","57dab7f721d77800018e42fe","57dab7f721d77800018e42fe_20240212","","","7","158"
"1964","0","html-button-response","159","650668","0.0-159.0","57dab7f721d77800018e42fe","57dab7f721d77800018e42fe_20240212","","","7","103"
"4617","0","html-button-response","160","655792","0.0-160.0","57dab7f721d77800018e42fe","57dab7f721d77800018e42fe_20240212","","","3","51"
"2970","0","html-button-response","161","659263","0.0-161.0","57dab7f721d77800018e42fe","57dab7f721d77800018e42fe_20240212","","","3","182"
"2487","0","html-button-response","162","662251","0.0-162.0","57dab7f721d77800018e42fe","57dab7f721d77800018e42fe_20240212","","","6","177"
"1575","0","html-button-response","163","664327","0.0-163.0","57dab7f721d77800018e42fe","57dab7f721d77800018e42fe_20240212","","","8","94"
"2458","0","html-button-response","164","667287","0.0-164.0","57dab7f721d77800018e42fe","57dab7f721d77800018e42fe_20240212","","","8","104"
"1936","0","html-button-response","165","669728","0.0-165.0","57dab7f721d77800018e42fe","57dab7f721d77800018e42fe_20240212","","","7","97"
"3433","0","html-button-response","166","673664","0.0-166.0","57dab7f721d77800018e42fe","57dab7f721d77800018e42fe_20240212","","","7","170"
"2779","0","html-button-response","167","676949","0.0-167.0","57dab7f721d77800018e42fe","57dab7f721d77800018e42fe_20240212","","","8","50"
"2558","0","html-button-response","168","680008","0.0-168.0","57dab7f721d77800018e42fe","57dab7f721d77800018e42fe_20240212","","","7","98"
"4000","0","html-button-response","169","684509","0.0-169.0","57dab7f721d77800018e42fe","57dab7f721d77800018e42fe_20240212","","","3","99"
"3573","0","html-button-response","170","688587","0.0-170.0","57dab7f721d77800018e42fe","57dab7f721d77800018e42fe_20240212","","","7","160"
"2735","0","html-button-response","171","691826","0.0-171.0","57dab7f721d77800018e42fe","57dab7f721d77800018e42fe_20240212","","","1","47"
"4345","0","html-button-response","172","696671","0.0-172.0","57dab7f721d77800018e42fe","57dab7f721d77800018e42fe_20240212","","","6","39"
"1789","0","html-button-response","173","698962","0.0-173.0","57dab7f721d77800018e42fe","57dab7f721d77800018e42fe_20240212","","","7","157"
"2051","0","html-button-response","174","701515","0.0-174.0","57dab7f721d77800018e42fe","57dab7f721d77800018e42fe_20240212","","","8","93"
"2763","0","html-button-response","175","704779","0.0-175.0","57dab7f721d77800018e42fe","57dab7f721d77800018e42fe_20240212","","","2","108"
"1740","0","html-button-response","176","707024","0.0-176.0","57dab7f721d77800018e42fe","57dab7f721d77800018e42fe_20240212","","","8","101"
"3057","0","html-button-response","177","710597","0.0-177.0","57dab7f721d77800018e42fe","57dab7f721d77800018e42fe_20240212","","","6","166"
"2501","0","html-button-response","178","713604","0.0-178.0","57dab7f721d77800018e42fe","57dab7f721d77800018e42fe_20240212","","","5","54"
"1904","0","html-button-response","179","716014","0.0-179.0","57dab7f721d77800018e42fe","57dab7f721d77800018e42fe_20240212","","","7","169"
"5103","0","html-button-response","180","721622","0.0-180.0","57dab7f721d77800018e42fe","57dab7f721d77800018e42fe_20240212","","","8","41"
"5316","0","html-button-response","181","727440","0.0-181.0","57dab7f721d77800018e42fe","57dab7f721d77800018e42fe_20240212","","","3","45"
"1971","0","html-button-response","182","729914","0.0-182.0","57dab7f721d77800018e42fe","57dab7f721d77800018e42fe_20240212","","","6","155"
"2038","0","html-button-response","183","732454","0.0-183.0","57dab7f721d77800018e42fe","57dab7f721d77800018e42fe_20240212","","","8","49"
"2192","0","html-button-response","184","735155","0.0-184.0","57dab7f721d77800018e42fe","57dab7f721d77800018e42fe_20240212","","","8","168"
"5399","0","html-button-response","185","741065","0.0-185.0","57dab7f721d77800018e42fe","57dab7f721d77800018e42fe_20240212","","","8","156"
"4570","0","html-button-response","186","746140","0.0-186.0","57dab7f721d77800018e42fe","57dab7f721d77800018e42fe_20240212","","","7","38"
"2075","0","html-button-response","187","748716","0.0-187.0","57dab7f721d77800018e42fe","57dab7f721d77800018e42fe_20240212","","","8","161"
"2337","0","html-button-response","188","751558","0.0-188.0","57dab7f721d77800018e42fe","57dab7f721d77800018e42fe_20240212","","","8","100"
"1003","0","html-button-response","189","753064","0.0-189.0","57dab7f721d77800018e42fe","57dab7f721d77800018e42fe_20240212","","Thank you. You have reached the end. 
                       <br>Click the button below to reveal your compensation.
                        <br><br>","",""
