"rt","response","trial_type","trial_index","time_elapsed","internal_node_id","part_ID","ID_DATE","screen_id","stimulus","rating","img_id"
"19333","0","html-button-response","0","19339","0.0-0.0","56bae08f30d6b30005f8537a","56bae08f30d6b30005f8537a_20240212","","","",""
"7353","[object Object]","survey-html-form","1","27203","0.0-1.0","56bae08f30d6b30005f8537a","56bae08f30d6b30005f8537a_20240212","prolific_id_page","","",""
"70914","0","html-button-response","2","98118","0.0-2.0","56bae08f30d6b30005f8537a","56bae08f30d6b30005f8537a_20240212","","","",""
"1224","0","html-button-response","3","99847","0.0-3.0","56bae08f30d6b30005f8537a","56bae08f30d6b30005f8537a_20240212","","
<div>
Great! You will now go on to rate the faces.
<br><br>
</div>
","",""
"4643","0","html-button-response","4","104994","0.0-4.0","56bae08f30d6b30005f8537a","56bae08f30d6b30005f8537a_20240212","","","7","94"
"4498","0","html-button-response","5","110003","0.0-5.0","56bae08f30d6b30005f8537a","56bae08f30d6b30005f8537a_20240212","","","1","45"
"1875","0","html-button-response","6","112380","0.0-6.0","56bae08f30d6b30005f8537a","56bae08f30d6b30005f8537a_20240212","","","6","160"
"4431","0","html-button-response","7","117349","0.0-7.0","56bae08f30d6b30005f8537a","56bae08f30d6b30005f8537a_20240212","","","7","155"
"2384","0","html-button-response","8","120244","0.0-8.0","56bae08f30d6b30005f8537a","56bae08f30d6b30005f8537a_20240212","","","5","41"
"1368","0","html-button-response","9","122127","0.0-9.0","56bae08f30d6b30005f8537a","56bae08f30d6b30005f8537a_20240212","","","6","38"
"2206","0","html-button-response","10","124836","0.0-10.0","56bae08f30d6b30005f8537a","56bae08f30d6b30005f8537a_20240212","","","7","170"
"1657","0","html-button-response","11","126999","0.0-11.0","56bae08f30d6b30005f8537a","56bae08f30d6b30005f8537a_20240212","","","6","161"
"3554","0","html-button-response","12","131061","0.0-12.0","56bae08f30d6b30005f8537a","56bae08f30d6b30005f8537a_20240212","","","4","174"
"1598","0","html-button-response","13","133170","0.0-13.0","56bae08f30d6b30005f8537a","56bae08f30d6b30005f8537a_20240212","","","5","52"
"2807","0","html-button-response","14","136483","0.0-14.0","56bae08f30d6b30005f8537a","56bae08f30d6b30005f8537a_20240212","","","8","98"
"2917","0","html-button-response","15","139909","0.0-15.0","56bae08f30d6b30005f8537a","56bae08f30d6b30005f8537a_20240212","","","4","48"
"1872","0","html-button-response","16","142294","0.0-16.0","56bae08f30d6b30005f8537a","56bae08f30d6b30005f8537a_20240212","","","5","47"
"1819","0","html-button-response","17","144622","0.0-17.0","56bae08f30d6b30005f8537a","56bae08f30d6b30005f8537a_20240212","","","6","43"
"1768","0","html-button-response","18","146905","0.0-18.0","56bae08f30d6b30005f8537a","56bae08f30d6b30005f8537a_20240212","","","5","54"
"2549","0","html-button-response","19","149960","0.0-19.0","56bae08f30d6b30005f8537a","56bae08f30d6b30005f8537a_20240212","","","6","171"
"36967","0","html-button-response","20","187432","0.0-20.0","56bae08f30d6b30005f8537a","56bae08f30d6b30005f8537a_20240212","","","6","103"
"6422","0","html-button-response","21","194372","0.0-21.0","56bae08f30d6b30005f8537a","56bae08f30d6b30005f8537a_20240212","","","7","158"
"1506","0","html-button-response","22","196392","0.0-22.0","56bae08f30d6b30005f8537a","56bae08f30d6b30005f8537a_20240212","","","7","156"
"3781","0","html-button-response","23","200675","0.0-23.0","56bae08f30d6b30005f8537a","56bae08f30d6b30005f8537a_20240212","","","7","96"
"1775","0","html-button-response","24","202962","0.0-24.0","56bae08f30d6b30005f8537a","56bae08f30d6b30005f8537a_20240212","","","3","42"
"1964","0","html-button-response","25","205438","0.0-25.0","56bae08f30d6b30005f8537a","56bae08f30d6b30005f8537a_20240212","","","7","99"
"1405","0","html-button-response","26","207345","0.0-26.0","56bae08f30d6b30005f8537a","56bae08f30d6b30005f8537a_20240212","","","7","106"
"1628","0","html-button-response","27","209490","0.0-27.0","56bae08f30d6b30005f8537a","56bae08f30d6b30005f8537a_20240212","","","8","102"
"1606","0","html-button-response","28","211606","0.0-28.0","56bae08f30d6b30005f8537a","56bae08f30d6b30005f8537a_20240212","","","2","39"
"2777","0","html-button-response","29","214899","0.0-29.0","56bae08f30d6b30005f8537a","56bae08f30d6b30005f8537a_20240212","","","7","92"
"2911","0","html-button-response","30","218312","0.0-30.0","56bae08f30d6b30005f8537a","56bae08f30d6b30005f8537a_20240212","","","7","169"
"2383","0","html-button-response","31","221198","0.0-31.0","56bae08f30d6b30005f8537a","56bae08f30d6b30005f8537a_20240212","","","3","50"
"2967","0","html-button-response","32","224678","0.0-32.0","56bae08f30d6b30005f8537a","56bae08f30d6b30005f8537a_20240212","","","1","182"
"2049","0","html-button-response","33","227240","0.0-33.0","56bae08f30d6b30005f8537a","56bae08f30d6b30005f8537a_20240212","","","1","49"
"3002","0","html-button-response","34","230747","0.0-34.0","56bae08f30d6b30005f8537a","56bae08f30d6b30005f8537a_20240212","","","1","183"
"2346","0","html-button-response","35","233607","0.0-35.0","56bae08f30d6b30005f8537a","56bae08f30d6b30005f8537a_20240212","","","7","104"
"1580","0","html-button-response","36","235688","0.0-36.0","56bae08f30d6b30005f8537a","56bae08f30d6b30005f8537a_20240212","","","1","53"
"1997","0","html-button-response","37","238194","0.0-37.0","56bae08f30d6b30005f8537a","56bae08f30d6b30005f8537a_20240212","","","2","181"
"99926","0","html-button-response","38","338620","0.0-38.0","56bae08f30d6b30005f8537a","56bae08f30d6b30005f8537a_20240212","","","6","175"
"2989","0","html-button-response","39","342115","0.0-39.0","56bae08f30d6b30005f8537a","56bae08f30d6b30005f8537a_20240212","","","3","162"
"10377","0","html-button-response","40","353000","0.0-40.0","56bae08f30d6b30005f8537a","56bae08f30d6b30005f8537a_20240212","","","6","95"
"5187","0","html-button-response","41","358700","0.0-41.0","56bae08f30d6b30005f8537a","56bae08f30d6b30005f8537a_20240212","","","3","163"
"3156","0","html-button-response","42","362358","0.0-42.0","56bae08f30d6b30005f8537a","56bae08f30d6b30005f8537a_20240212","","","6","105"
"7167","0","html-button-response","43","370036","0.0-43.0","56bae08f30d6b30005f8537a","56bae08f30d6b30005f8537a_20240212","","","2","93"
"2743","0","html-button-response","44","373292","0.0-44.0","56bae08f30d6b30005f8537a","56bae08f30d6b30005f8537a_20240212","","","5","37"
"2144","0","html-button-response","45","375951","0.0-45.0","56bae08f30d6b30005f8537a","56bae08f30d6b30005f8537a_20240212","","","5","44"
"3232","0","html-button-response","46","379691","0.0-46.0","56bae08f30d6b30005f8537a","56bae08f30d6b30005f8537a_20240212","","","8","97"
"1984","0","html-button-response","47","382182","0.0-47.0","56bae08f30d6b30005f8537a","56bae08f30d6b30005f8537a_20240212","","","2","46"
"2134","0","html-button-response","48","384822","0.0-48.0","56bae08f30d6b30005f8537a","56bae08f30d6b30005f8537a_20240212","","","5","166"
"2082","0","html-button-response","49","387419","0.0-49.0","56bae08f30d6b30005f8537a","56bae08f30d6b30005f8537a_20240212","","","8","100"
"3738","0","html-button-response","50","391669","0.0-50.0","56bae08f30d6b30005f8537a","56bae08f30d6b30005f8537a_20240212","","","3","165"
"1838","0","html-button-response","51","394013","0.0-51.0","56bae08f30d6b30005f8537a","56bae08f30d6b30005f8537a_20240212","","","4","167"
"1749","0","html-button-response","52","396277","0.0-52.0","56bae08f30d6b30005f8537a","56bae08f30d6b30005f8537a_20240212","","","2","173"
"2341","0","html-button-response","53","399135","0.0-53.0","56bae08f30d6b30005f8537a","56bae08f30d6b30005f8537a_20240212","","","8","101"
"1689","0","html-button-response","54","401336","0.0-54.0","56bae08f30d6b30005f8537a","56bae08f30d6b30005f8537a_20240212","","","7","108"
"255018","0","html-button-response","55","656861","0.0-55.0","56bae08f30d6b30005f8537a","56bae08f30d6b30005f8537a_20240212","","","9","107"
"3574","0","html-button-response","56","660949","0.0-56.0","56bae08f30d6b30005f8537a","56bae08f30d6b30005f8537a_20240212","","","3","51"
"1586","0","html-button-response","57","663040","0.0-57.0","56bae08f30d6b30005f8537a","56bae08f30d6b30005f8537a_20240212","","","1","91"
"2341","0","html-button-response","58","665883","0.0-58.0","56bae08f30d6b30005f8537a","56bae08f30d6b30005f8537a_20240212","","","6","176"
"2025","0","html-button-response","59","668410","0.0-59.0","56bae08f30d6b30005f8537a","56bae08f30d6b30005f8537a_20240212","","","4","172"
"2356","0","html-button-response","60","671268","0.0-60.0","56bae08f30d6b30005f8537a","56bae08f30d6b30005f8537a_20240212","","","7","164"
"2096","0","html-button-response","61","673899","0.0-61.0","56bae08f30d6b30005f8537a","56bae08f30d6b30005f8537a_20240212","","","7","177"
"1899","0","html-button-response","62","676327","0.0-62.0","56bae08f30d6b30005f8537a","56bae08f30d6b30005f8537a_20240212","","","6","40"
"3204","0","html-button-response","63","680044","0.0-63.0","56bae08f30d6b30005f8537a","56bae08f30d6b30005f8537a_20240212","","","2","168"
"126785","0","html-button-response","64","807342","0.0-64.0","56bae08f30d6b30005f8537a","56bae08f30d6b30005f8537a_20240212","","","6","159"
"9274","0","html-button-response","65","817123","0.0-65.0","56bae08f30d6b30005f8537a","56bae08f30d6b30005f8537a_20240212","","","6","157"
"1745","0","html-button-response","66","819379","0.0-66.0","56bae08f30d6b30005f8537a","56bae08f30d6b30005f8537a_20240212","","","",""
"4821","0","html-button-response","67","824704","0.0-67.0","56bae08f30d6b30005f8537a","56bae08f30d6b30005f8537a_20240212","","","8","138"
"4847","0","html-button-response","68","830059","0.0-68.0","56bae08f30d6b30005f8537a","56bae08f30d6b30005f8537a_20240212","","","6","29"
"7032","0","html-button-response","69","837594","0.0-69.0","56bae08f30d6b30005f8537a","56bae08f30d6b30005f8537a_20240212","","","8","142"
"14101","0","html-button-response","70","852201","0.0-70.0","56bae08f30d6b30005f8537a","56bae08f30d6b30005f8537a_20240212","","","8","150"
"27633","0","html-button-response","71","880336","0.0-71.0","56bae08f30d6b30005f8537a","56bae08f30d6b30005f8537a_20240212","","","6","32"
"3764","0","html-button-response","72","884614","0.0-72.0","56bae08f30d6b30005f8537a","56bae08f30d6b30005f8537a_20240212","","","8","134"
"80877","0","html-button-response","73","965997","0.0-73.0","56bae08f30d6b30005f8537a","56bae08f30d6b30005f8537a_20240212","","","7","79"
"2456","0","html-button-response","74","968967","0.0-74.0","56bae08f30d6b30005f8537a","56bae08f30d6b30005f8537a_20240212","","","7","82"
"6452","0","html-button-response","75","975924","0.0-75.0","56bae08f30d6b30005f8537a","56bae08f30d6b30005f8537a_20240212","","","6","152"
"1412","0","html-button-response","76","977840","0.0-76.0","56bae08f30d6b30005f8537a","56bae08f30d6b30005f8537a_20240212","","","8","74"
"1396","0","html-button-response","77","979755","0.0-77.0","56bae08f30d6b30005f8537a","56bae08f30d6b30005f8537a_20240212","","","7","151"
"1880","0","html-button-response","78","982139","0.0-78.0","56bae08f30d6b30005f8537a","56bae08f30d6b30005f8537a_20240212","","","9","80"
"1467","0","html-button-response","79","984106","0.0-79.0","56bae08f30d6b30005f8537a","56bae08f30d6b30005f8537a_20240212","","","8","132"
"3163","0","html-button-response","80","987839","0.0-80.0","56bae08f30d6b30005f8537a","56bae08f30d6b30005f8537a_20240212","","","4","31"
"2732","0","html-button-response","81","991094","0.0-81.0","56bae08f30d6b30005f8537a","56bae08f30d6b30005f8537a_20240212","","","2","20"
"7799","0","html-button-response","82","999401","0.0-82.0","56bae08f30d6b30005f8537a","56bae08f30d6b30005f8537a_20240212","","","7","136"
"2049","0","html-button-response","83","1001960","0.0-83.0","56bae08f30d6b30005f8537a","56bae08f30d6b30005f8537a_20240212","","","8","73"
"1496","0","html-button-response","84","1003974","0.0-84.0","56bae08f30d6b30005f8537a","56bae08f30d6b30005f8537a_20240212","","","7","154"
"2981","0","html-button-response","85","1007466","0.0-85.0","56bae08f30d6b30005f8537a","56bae08f30d6b30005f8537a_20240212","","","4","21"
"1778","0","html-button-response","86","1009756","0.0-86.0","56bae08f30d6b30005f8537a","56bae08f30d6b30005f8537a_20240212","","","9","88"
"1285","0","html-button-response","87","1011551","0.0-87.0","56bae08f30d6b30005f8537a","56bae08f30d6b30005f8537a_20240212","","","8","140"
"1524","0","html-button-response","88","1013579","0.0-88.0","56bae08f30d6b30005f8537a","56bae08f30d6b30005f8537a_20240212","","","8","141"
"2209","0","html-button-response","89","1016302","0.0-89.0","56bae08f30d6b30005f8537a","56bae08f30d6b30005f8537a_20240212","","","8","148"
"12289","0","html-button-response","90","1029101","0.0-90.0","56bae08f30d6b30005f8537a","56bae08f30d6b30005f8537a_20240212","","","9","76"
"2062","0","html-button-response","91","1031670","0.0-91.0","56bae08f30d6b30005f8537a","56bae08f30d6b30005f8537a_20240212","","","7","179"
"1788","0","html-button-response","92","1033966","0.0-92.0","56bae08f30d6b30005f8537a","56bae08f30d6b30005f8537a_20240212","","","8","178"
"1428","0","html-button-response","93","1035905","0.0-93.0","56bae08f30d6b30005f8537a","56bae08f30d6b30005f8537a_20240212","","","9","78"
"1815","0","html-button-response","94","1038271","0.0-94.0","56bae08f30d6b30005f8537a","56bae08f30d6b30005f8537a_20240212","","","4","27"
"1804","0","html-button-response","95","1040591","0.0-95.0","56bae08f30d6b30005f8537a","56bae08f30d6b30005f8537a_20240212","","","9","89"
"1396","0","html-button-response","96","1042490","0.0-96.0","56bae08f30d6b30005f8537a","56bae08f30d6b30005f8537a_20240212","","","8","143"
"1292","0","html-button-response","97","1044283","0.0-97.0","56bae08f30d6b30005f8537a","56bae08f30d6b30005f8537a_20240212","","","8","153"
"1774","0","html-button-response","98","1046572","0.0-98.0","56bae08f30d6b30005f8537a","56bae08f30d6b30005f8537a_20240212","","","5","33"
"2284","0","html-button-response","99","1049375","0.0-99.0","56bae08f30d6b30005f8537a","56bae08f30d6b30005f8537a_20240212","","","7","133"
"3564","0","html-button-response","100","1053448","0.0-100.0","56bae08f30d6b30005f8537a","56bae08f30d6b30005f8537a_20240212","","","5","30"
"2851","0","html-button-response","101","1056807","0.0-101.0","56bae08f30d6b30005f8537a","56bae08f30d6b30005f8537a_20240212","","","4","28"
"1483","0","html-button-response","102","1058809","0.0-102.0","56bae08f30d6b30005f8537a","56bae08f30d6b30005f8537a_20240212","","","9","86"
"1770","0","html-button-response","103","1061092","0.0-103.0","56bae08f30d6b30005f8537a","56bae08f30d6b30005f8537a_20240212","","","4","24"
"1689","0","html-button-response","104","1063317","0.0-104.0","56bae08f30d6b30005f8537a","56bae08f30d6b30005f8537a_20240212","","","8","81"
"1450","0","html-button-response","105","1065277","0.0-105.0","56bae08f30d6b30005f8537a","56bae08f30d6b30005f8537a_20240212","","","8","139"
"2235","0","html-button-response","106","1068075","0.0-106.0","56bae08f30d6b30005f8537a","56bae08f30d6b30005f8537a_20240212","","","8","149"
"2347","0","html-button-response","107","1070930","0.0-107.0","56bae08f30d6b30005f8537a","56bae08f30d6b30005f8537a_20240212","","","3","19"
"1390","0","html-button-response","108","1072833","0.0-108.0","56bae08f30d6b30005f8537a","56bae08f30d6b30005f8537a_20240212","","","8","85"
"374730","0","html-button-response","109","1448064","0.0-109.0","56bae08f30d6b30005f8537a","56bae08f30d6b30005f8537a_20240212","","","6","180"
"1699","0","html-button-response","110","1450271","0.0-110.0","56bae08f30d6b30005f8537a","56bae08f30d6b30005f8537a_20240212","","","7","83"
"2101","0","html-button-response","111","1452874","0.0-111.0","56bae08f30d6b30005f8537a","56bae08f30d6b30005f8537a_20240212","","","7","147"
"1864","0","html-button-response","112","1455242","0.0-112.0","56bae08f30d6b30005f8537a","56bae08f30d6b30005f8537a_20240212","","","8","75"
"1478","0","html-button-response","113","1457229","0.0-113.0","56bae08f30d6b30005f8537a","56bae08f30d6b30005f8537a_20240212","","","7","145"
"1777","0","html-button-response","114","1459518","0.0-114.0","56bae08f30d6b30005f8537a","56bae08f30d6b30005f8537a_20240212","","","8","87"
"3087","0","html-button-response","115","1463117","0.0-115.0","56bae08f30d6b30005f8537a","56bae08f30d6b30005f8537a_20240212","","","4","36"
"2107","0","html-button-response","116","1465731","0.0-116.0","56bae08f30d6b30005f8537a","56bae08f30d6b30005f8537a_20240212","","","7","135"
"1122","0","html-button-response","117","1467364","0.0-117.0","56bae08f30d6b30005f8537a","56bae08f30d6b30005f8537a_20240212","","","7","34"
"2319","0","html-button-response","118","1470191","0.0-118.0","56bae08f30d6b30005f8537a","56bae08f30d6b30005f8537a_20240212","","","5","22"
"1765","0","html-button-response","119","1472481","0.0-119.0","56bae08f30d6b30005f8537a","56bae08f30d6b30005f8537a_20240212","","","7","137"
"1680","0","html-button-response","120","1474673","0.0-120.0","56bae08f30d6b30005f8537a","56bae08f30d6b30005f8537a_20240212","","","7","84"
"1267","0","html-button-response","121","1476450","0.0-121.0","56bae08f30d6b30005f8537a","56bae08f30d6b30005f8537a_20240212","","","7","90"
"2574","0","html-button-response","122","1479527","0.0-122.0","56bae08f30d6b30005f8537a","56bae08f30d6b30005f8537a_20240212","","","3","35"
"3091","0","html-button-response","123","1483125","0.0-123.0","56bae08f30d6b30005f8537a","56bae08f30d6b30005f8537a_20240212","","","8","144"
"2162","0","html-button-response","124","1485792","0.0-124.0","56bae08f30d6b30005f8537a","56bae08f30d6b30005f8537a_20240212","","","8","146"
"1889","0","html-button-response","125","1488191","0.0-125.0","56bae08f30d6b30005f8537a","56bae08f30d6b30005f8537a_20240212","","","9","77"
"1608","0","html-button-response","126","1490307","0.0-126.0","56bae08f30d6b30005f8537a","56bae08f30d6b30005f8537a_20240212","","","5","23"
"1679","0","html-button-response","127","1492500","0.0-127.0","56bae08f30d6b30005f8537a","56bae08f30d6b30005f8537a_20240212","","","3","25"
"4752","0","html-button-response","128","1497765","0.0-128.0","56bae08f30d6b30005f8537a","56bae08f30d6b30005f8537a_20240212","","","5","26"
"3735","0","html-button-response","129","1502011","0.0-129.0","56bae08f30d6b30005f8537a","56bae08f30d6b30005f8537a_20240212","","","",""
"4454","0","html-button-response","130","1506979","0.0-130.0","56bae08f30d6b30005f8537a","56bae08f30d6b30005f8537a_20240212","","","7","68"
"2110","0","html-button-response","131","1509596","0.0-131.0","56bae08f30d6b30005f8537a","56bae08f30d6b30005f8537a_20240212","","","8","6"
"2124","0","html-button-response","132","1512236","0.0-132.0","56bae08f30d6b30005f8537a","56bae08f30d6b30005f8537a_20240212","","","9","117"
"4590","0","html-button-response","133","1517335","0.0-133.0","56bae08f30d6b30005f8537a","56bae08f30d6b30005f8537a_20240212","","","9","126"
"5517","0","html-button-response","134","1523363","0.0-134.0","56bae08f30d6b30005f8537a","56bae08f30d6b30005f8537a_20240212","","","8","70"
"3619","0","html-button-response","135","1527493","0.0-135.0","56bae08f30d6b30005f8537a","56bae08f30d6b30005f8537a_20240212","","","8","11"
"3965","0","html-button-response","136","1531971","0.0-136.0","56bae08f30d6b30005f8537a","56bae08f30d6b30005f8537a_20240212","","","9","123"
"1524","0","html-button-response","137","1534003","0.0-137.0","56bae08f30d6b30005f8537a","56bae08f30d6b30005f8537a_20240212","","","9","129"
"1444","0","html-button-response","138","1536006","0.0-138.0","56bae08f30d6b30005f8537a","56bae08f30d6b30005f8537a_20240212","","","8","109"
"3016","0","html-button-response","139","1539591","0.0-139.0","56bae08f30d6b30005f8537a","56bae08f30d6b30005f8537a_20240212","","","9","66"
"3581","0","html-button-response","140","1543684","0.0-140.0","56bae08f30d6b30005f8537a","56bae08f30d6b30005f8537a_20240212","","","9","62"
"10579","0","html-button-response","141","1554774","0.0-141.0","56bae08f30d6b30005f8537a","56bae08f30d6b30005f8537a_20240212","","","7","64"
"2644","0","html-button-response","142","1557930","0.0-142.0","56bae08f30d6b30005f8537a","56bae08f30d6b30005f8537a_20240212","","","9","72"
"3476","0","html-button-response","143","1561917","0.0-143.0","56bae08f30d6b30005f8537a","56bae08f30d6b30005f8537a_20240212","","","8","7"
"3353","0","html-button-response","144","1565825","0.0-144.0","56bae08f30d6b30005f8537a","56bae08f30d6b30005f8537a_20240212","","","8","115"
"2882","0","html-button-response","145","1569229","0.0-145.0","56bae08f30d6b30005f8537a","56bae08f30d6b30005f8537a_20240212","","","7","71"
"2347","0","html-button-response","146","1572081","0.0-146.0","56bae08f30d6b30005f8537a","56bae08f30d6b30005f8537a_20240212","","","9","57"
"1690","0","html-button-response","147","1574333","0.0-147.0","56bae08f30d6b30005f8537a","56bae08f30d6b30005f8537a_20240212","","","8","116"
"2161","0","html-button-response","148","1576998","0.0-148.0","56bae08f30d6b30005f8537a","56bae08f30d6b30005f8537a_20240212","","","8","114"
"2364","0","html-button-response","149","1579867","0.0-149.0","56bae08f30d6b30005f8537a","56bae08f30d6b30005f8537a_20240212","","","4","8"
"1809","0","html-button-response","150","1582191","0.0-150.0","56bae08f30d6b30005f8537a","56bae08f30d6b30005f8537a_20240212","","","9","131"
"212686","0","html-button-response","151","1795379","0.0-151.0","56bae08f30d6b30005f8537a","56bae08f30d6b30005f8537a_20240212","","","7","4"
"1820","0","html-button-response","152","1797713","0.0-152.0","56bae08f30d6b30005f8537a","56bae08f30d6b30005f8537a_20240212","","","9","55"
"2074","0","html-button-response","153","1800295","0.0-153.0","56bae08f30d6b30005f8537a","56bae08f30d6b30005f8537a_20240212","","","7","14"
"2114","0","html-button-response","154","1802911","0.0-154.0","56bae08f30d6b30005f8537a","56bae08f30d6b30005f8537a_20240212","","","3","9"
"2177","0","html-button-response","155","1805591","0.0-155.0","56bae08f30d6b30005f8537a","56bae08f30d6b30005f8537a_20240212","","","3","13"
"1886","0","html-button-response","156","1807985","0.0-156.0","56bae08f30d6b30005f8537a","56bae08f30d6b30005f8537a_20240212","","","8","130"
"2412","0","html-button-response","157","1810904","0.0-157.0","56bae08f30d6b30005f8537a","56bae08f30d6b30005f8537a_20240212","","","9","111"
"1665","0","html-button-response","158","1813083","0.0-158.0","56bae08f30d6b30005f8537a","56bae08f30d6b30005f8537a_20240212","","","6","15"
"2694","0","html-button-response","159","1816282","0.0-159.0","56bae08f30d6b30005f8537a","56bae08f30d6b30005f8537a_20240212","","","9","121"
"2038","0","html-button-response","160","1818827","0.0-160.0","56bae08f30d6b30005f8537a","56bae08f30d6b30005f8537a_20240212","","","9","69"
"2048","0","html-button-response","161","1821380","0.0-161.0","56bae08f30d6b30005f8537a","56bae08f30d6b30005f8537a_20240212","","","1","60"
"1637","0","html-button-response","162","1823525","0.0-162.0","56bae08f30d6b30005f8537a","56bae08f30d6b30005f8537a_20240212","","","9","119"
"1803","0","html-button-response","163","1825895","0.0-163.0","56bae08f30d6b30005f8537a","56bae08f30d6b30005f8537a_20240212","","","9","124"
"1547","0","html-button-response","164","1827956","0.0-164.0","56bae08f30d6b30005f8537a","56bae08f30d6b30005f8537a_20240212","","","9","120"
"1864","0","html-button-response","165","1830327","0.0-165.0","56bae08f30d6b30005f8537a","56bae08f30d6b30005f8537a_20240212","","","1","12"
"1723","0","html-button-response","166","1832566","0.0-166.0","56bae08f30d6b30005f8537a","56bae08f30d6b30005f8537a_20240212","","","7","125"
"2671","0","html-button-response","167","1835740","0.0-167.0","56bae08f30d6b30005f8537a","56bae08f30d6b30005f8537a_20240212","","","9","5"
"2054","0","html-button-response","168","1838326","0.0-168.0","56bae08f30d6b30005f8537a","56bae08f30d6b30005f8537a_20240212","","","9","65"
"169600","0","html-button-response","169","2008433","0.0-169.0","56bae08f30d6b30005f8537a","56bae08f30d6b30005f8537a_20240212","","","6","16"
"2778","0","html-button-response","170","2011727","0.0-170.0","56bae08f30d6b30005f8537a","56bae08f30d6b30005f8537a_20240212","","","8","127"
"2233","0","html-button-response","171","2014462","0.0-171.0","56bae08f30d6b30005f8537a","56bae08f30d6b30005f8537a_20240212","","","8","56"
"2838","0","html-button-response","172","2017806","0.0-172.0","56bae08f30d6b30005f8537a","56bae08f30d6b30005f8537a_20240212","","","9","61"
"1483","0","html-button-response","173","2019798","0.0-173.0","56bae08f30d6b30005f8537a","56bae08f30d6b30005f8537a_20240212","","","9","67"
"1436","0","html-button-response","174","2021742","0.0-174.0","56bae08f30d6b30005f8537a","56bae08f30d6b30005f8537a_20240212","","","9","118"
"2126","0","html-button-response","175","2024377","0.0-175.0","56bae08f30d6b30005f8537a","56bae08f30d6b30005f8537a_20240212","","","3","63"
"1695","0","html-button-response","176","2026576","0.0-176.0","56bae08f30d6b30005f8537a","56bae08f30d6b30005f8537a_20240212","","","1","10"
"1755","0","html-button-response","177","2028841","0.0-177.0","56bae08f30d6b30005f8537a","56bae08f30d6b30005f8537a_20240212","","","9","59"
"1226","0","html-button-response","178","2030574","0.0-178.0","56bae08f30d6b30005f8537a","56bae08f30d6b30005f8537a_20240212","","","8","128"
"1471","0","html-button-response","179","2032560","0.0-179.0","56bae08f30d6b30005f8537a","56bae08f30d6b30005f8537a_20240212","","","3","2"
"1907","0","html-button-response","180","2034971","0.0-180.0","56bae08f30d6b30005f8537a","56bae08f30d6b30005f8537a_20240212","","","7","58"
"2138","0","html-button-response","181","2037614","0.0-181.0","56bae08f30d6b30005f8537a","56bae08f30d6b30005f8537a_20240212","","","5","17"
"2203","0","html-button-response","182","2040332","0.0-182.0","56bae08f30d6b30005f8537a","56bae08f30d6b30005f8537a_20240212","","","1","18"
"1864","0","html-button-response","183","2042703","0.0-183.0","56bae08f30d6b30005f8537a","56bae08f30d6b30005f8537a_20240212","","","3","3"
"1688","0","html-button-response","184","2044905","0.0-184.0","56bae08f30d6b30005f8537a","56bae08f30d6b30005f8537a_20240212","","","9","113"
"1897","0","html-button-response","185","2047311","0.0-185.0","56bae08f30d6b30005f8537a","56bae08f30d6b30005f8537a_20240212","","","3","1"
"2059","0","html-button-response","186","2049929","0.0-186.0","56bae08f30d6b30005f8537a","56bae08f30d6b30005f8537a_20240212","","","9","110"
"3218","0","html-button-response","187","2053648","0.0-187.0","56bae08f30d6b30005f8537a","56bae08f30d6b30005f8537a_20240212","","","9","122"
"1512","0","html-button-response","188","2055672","0.0-188.0","56bae08f30d6b30005f8537a","56bae08f30d6b30005f8537a_20240212","","","9","112"
"1058","0","html-button-response","189","2057236","0.0-189.0","56bae08f30d6b30005f8537a","56bae08f30d6b30005f8537a_20240212","","Thank you. You have reached the end. 
                       <br>Click the button below to reveal your compensation.
                        <br><br>","",""
