rt,response,trial_type,trial_index,time_elapsed,internal_node_id,part_ID,ID_DATE,screen_id,stimulus,rating,img_id
40884,0,html-button-response,0,40885,0.0-0.0,5ce9be3a7d69950001cd9959,5ce9be3a7d69950001cd9959_20240212,,,,
14773,[object Object],survey-html-form,1,56171,0.0-1.0,5ce9be3a7d69950001cd9959,5ce9be3a7d69950001cd9959_20240212,prolific_id_page,,,
22394,0,html-button-response,2,78566,0.0-2.0,5ce9be3a7d69950001cd9959,5ce9be3a7d69950001cd9959_20240212,,,,
5495,0,html-button-response,3,84567,0.0-3.0,5ce9be3a7d69950001cd9959,5ce9be3a7d69950001cd9959_20240212,,"
<div>
Great! You will now go on to rate the faces.
<br><br>
</div>
",,
4805,0,html-button-response,4,89887,0.0-4.0,5ce9be3a7d69950001cd9959,5ce9be3a7d69950001cd9959_20240212,,,9,75
5654,0,html-button-response,5,96044,0.0-5.0,5ce9be3a7d69950001cd9959,5ce9be3a7d69950001cd9959_20240212,,,9,28
4018,0,html-button-response,6,100574,0.0-6.0,5ce9be3a7d69950001cd9959,5ce9be3a7d69950001cd9959_20240212,,,9,154
3971,0,html-button-response,7,105057,0.0-7.0,5ce9be3a7d69950001cd9959,5ce9be3a7d69950001cd9959_20240212,,,7,35
5068,0,html-button-response,8,110637,0.0-8.0,5ce9be3a7d69950001cd9959,5ce9be3a7d69950001cd9959_20240212,,,6,19
3539,0,html-button-response,9,114684,0.0-9.0,5ce9be3a7d69950001cd9959,5ce9be3a7d69950001cd9959_20240212,,,9,82
3205,0,html-button-response,10,118394,0.0-10.0,5ce9be3a7d69950001cd9959,5ce9be3a7d69950001cd9959_20240212,,,8,151
3637,0,html-button-response,11,122534,0.0-11.0,5ce9be3a7d69950001cd9959,5ce9be3a7d69950001cd9959_20240212,,,9,83
4513,0,html-button-response,12,127557,0.0-12.0,5ce9be3a7d69950001cd9959,5ce9be3a7d69950001cd9959_20240212,,,5,36
3815,0,html-button-response,13,131887,0.0-13.0,5ce9be3a7d69950001cd9959,5ce9be3a7d69950001cd9959_20240212,,,7,26
4801,0,html-button-response,14,137198,0.0-14.0,5ce9be3a7d69950001cd9959,5ce9be3a7d69950001cd9959_20240212,,,9,140
3065,0,html-button-response,15,140768,0.0-15.0,5ce9be3a7d69950001cd9959,5ce9be3a7d69950001cd9959_20240212,,,9,138
8981,0,html-button-response,16,150254,0.0-16.0,5ce9be3a7d69950001cd9959,5ce9be3a7d69950001cd9959_20240212,,,8,137
3287,0,html-button-response,17,154051,0.0-17.0,5ce9be3a7d69950001cd9959,5ce9be3a7d69950001cd9959_20240212,,,8,180
9407,0,html-button-response,18,163970,0.0-18.0,5ce9be3a7d69950001cd9959,5ce9be3a7d69950001cd9959_20240212,,,8,133
3010,0,html-button-response,19,167495,0.0-19.0,5ce9be3a7d69950001cd9959,5ce9be3a7d69950001cd9959_20240212,,,9,87
4204,0,html-button-response,20,172204,0.0-20.0,5ce9be3a7d69950001cd9959,5ce9be3a7d69950001cd9959_20240212,,,9,90
4812,0,html-button-response,21,177524,0.0-21.0,5ce9be3a7d69950001cd9959,5ce9be3a7d69950001cd9959_20240212,,,7,146
3766,0,html-button-response,22,181806,0.0-22.0,5ce9be3a7d69950001cd9959,5ce9be3a7d69950001cd9959_20240212,,,8,78
5296,0,html-button-response,23,187613,0.0-23.0,5ce9be3a7d69950001cd9959,5ce9be3a7d69950001cd9959_20240212,,,8,153
4234,0,html-button-response,24,192363,0.0-24.0,5ce9be3a7d69950001cd9959,5ce9be3a7d69950001cd9959_20240212,,,6,23
3138,0,html-button-response,25,196011,0.0-25.0,5ce9be3a7d69950001cd9959,5ce9be3a7d69950001cd9959_20240212,,,8,76
3217,0,html-button-response,26,199741,0.0-26.0,5ce9be3a7d69950001cd9959,5ce9be3a7d69950001cd9959_20240212,,,9,77
3501,0,html-button-response,27,203752,0.0-27.0,5ce9be3a7d69950001cd9959,5ce9be3a7d69950001cd9959_20240212,,,9,80
5538,0,html-button-response,28,209795,0.0-28.0,5ce9be3a7d69950001cd9959,5ce9be3a7d69950001cd9959_20240212,,,8,24
2848,0,html-button-response,29,213145,0.0-29.0,5ce9be3a7d69950001cd9959,5ce9be3a7d69950001cd9959_20240212,,,8,89
9178,0,html-button-response,30,222835,0.0-30.0,5ce9be3a7d69950001cd9959,5ce9be3a7d69950001cd9959_20240212,,,7,21
3139,0,html-button-response,31,226478,0.0-31.0,5ce9be3a7d69950001cd9959,5ce9be3a7d69950001cd9959_20240212,,,8,134
4322,0,html-button-response,32,231310,0.0-32.0,5ce9be3a7d69950001cd9959,5ce9be3a7d69950001cd9959_20240212,,,8,179
3881,0,html-button-response,33,235704,0.0-33.0,5ce9be3a7d69950001cd9959,5ce9be3a7d69950001cd9959_20240212,,,9,81
2897,0,html-button-response,34,239110,0.0-34.0,5ce9be3a7d69950001cd9959,5ce9be3a7d69950001cd9959_20240212,,,8,142
4325,0,html-button-response,35,243944,0.0-35.0,5ce9be3a7d69950001cd9959,5ce9be3a7d69950001cd9959_20240212,,,4,33
6718,0,html-button-response,36,251172,0.0-36.0,5ce9be3a7d69950001cd9959,5ce9be3a7d69950001cd9959_20240212,,,6,31
3525,0,html-button-response,37,255203,0.0-37.0,5ce9be3a7d69950001cd9959,5ce9be3a7d69950001cd9959_20240212,,,9,84
4197,0,html-button-response,38,259910,0.0-38.0,5ce9be3a7d69950001cd9959,5ce9be3a7d69950001cd9959_20240212,,,7,178
2939,0,html-button-response,39,263359,0.0-39.0,5ce9be3a7d69950001cd9959,5ce9be3a7d69950001cd9959_20240212,,,8,136
3557,0,html-button-response,40,267421,0.0-40.0,5ce9be3a7d69950001cd9959,5ce9be3a7d69950001cd9959_20240212,,,8,143
3071,0,html-button-response,41,270999,0.0-41.0,5ce9be3a7d69950001cd9959,5ce9be3a7d69950001cd9959_20240212,,,8,149
9881,0,html-button-response,42,281383,0.0-42.0,5ce9be3a7d69950001cd9959,5ce9be3a7d69950001cd9959_20240212,,,6,30
4699,0,html-button-response,43,286590,0.0-43.0,5ce9be3a7d69950001cd9959,5ce9be3a7d69950001cd9959_20240212,,,9,148
2986,0,html-button-response,44,290089,0.0-44.0,5ce9be3a7d69950001cd9959,5ce9be3a7d69950001cd9959_20240212,,,9,152
2808,0,html-button-response,45,293406,0.0-45.0,5ce9be3a7d69950001cd9959,5ce9be3a7d69950001cd9959_20240212,,,9,132
2991,0,html-button-response,46,296909,0.0-46.0,5ce9be3a7d69950001cd9959,5ce9be3a7d69950001cd9959_20240212,,,9,85
3466,0,html-button-response,47,300882,0.0-47.0,5ce9be3a7d69950001cd9959,5ce9be3a7d69950001cd9959_20240212,,,3,20
3468,0,html-button-response,48,304863,0.0-48.0,5ce9be3a7d69950001cd9959,5ce9be3a7d69950001cd9959_20240212,,,4,29
2904,0,html-button-response,49,308277,0.0-49.0,5ce9be3a7d69950001cd9959,5ce9be3a7d69950001cd9959_20240212,,,9,86
4171,0,html-button-response,50,312958,0.0-50.0,5ce9be3a7d69950001cd9959,5ce9be3a7d69950001cd9959_20240212,,,9,147
2729,0,html-button-response,51,316195,0.0-51.0,5ce9be3a7d69950001cd9959,5ce9be3a7d69950001cd9959_20240212,,,9,88
3927,0,html-button-response,52,320632,0.0-52.0,5ce9be3a7d69950001cd9959,5ce9be3a7d69950001cd9959_20240212,,,6,27
3152,0,html-button-response,53,324290,0.0-53.0,5ce9be3a7d69950001cd9959,5ce9be3a7d69950001cd9959_20240212,,,8,135
5572,0,html-button-response,54,330365,0.0-54.0,5ce9be3a7d69950001cd9959,5ce9be3a7d69950001cd9959_20240212,,,6,22
5539,0,html-button-response,55,336410,0.0-55.0,5ce9be3a7d69950001cd9959,5ce9be3a7d69950001cd9959_20240212,,,8,150
2467,0,html-button-response,56,339389,0.0-56.0,5ce9be3a7d69950001cd9959,5ce9be3a7d69950001cd9959_20240212,,,8,144
3276,0,html-button-response,57,343174,0.0-57.0,5ce9be3a7d69950001cd9959,5ce9be3a7d69950001cd9959_20240212,,,9,74
4685,0,html-button-response,58,348374,0.0-58.0,5ce9be3a7d69950001cd9959,5ce9be3a7d69950001cd9959_20240212,,,6,25
3432,0,html-button-response,59,352311,0.0-59.0,5ce9be3a7d69950001cd9959,5ce9be3a7d69950001cd9959_20240212,,,9,79
4884,0,html-button-response,60,357709,0.0-60.0,5ce9be3a7d69950001cd9959,5ce9be3a7d69950001cd9959_20240212,,,6,32
3046,0,html-button-response,61,361263,0.0-61.0,5ce9be3a7d69950001cd9959,5ce9be3a7d69950001cd9959_20240212,,,9,73
3458,0,html-button-response,62,365229,0.0-62.0,5ce9be3a7d69950001cd9959,5ce9be3a7d69950001cd9959_20240212,,,9,141
3253,0,html-button-response,63,368990,0.0-63.0,5ce9be3a7d69950001cd9959,5ce9be3a7d69950001cd9959_20240212,,,9,145
3403,0,html-button-response,64,372901,0.0-64.0,5ce9be3a7d69950001cd9959,5ce9be3a7d69950001cd9959_20240212,,,4,34
3234,0,html-button-response,65,376651,0.0-65.0,5ce9be3a7d69950001cd9959,5ce9be3a7d69950001cd9959_20240212,,,8,139
11120,0,html-button-response,66,388275,0.0-66.0,5ce9be3a7d69950001cd9959,5ce9be3a7d69950001cd9959_20240212,,,,
5238,0,html-button-response,67,394017,0.0-67.0,5ce9be3a7d69950001cd9959,5ce9be3a7d69950001cd9959_20240212,,,5,58
3066,0,html-button-response,68,397590,0.0-68.0,5ce9be3a7d69950001cd9959,5ce9be3a7d69950001cd9959_20240212,,,5,56
3287,0,html-button-response,69,401393,0.0-69.0,5ce9be3a7d69950001cd9959,5ce9be3a7d69950001cd9959_20240212,,,4,8
4842,0,html-button-response,70,406742,0.0-70.0,5ce9be3a7d69950001cd9959,5ce9be3a7d69950001cd9959_20240212,,,5,123
3351,0,html-button-response,71,410603,0.0-71.0,5ce9be3a7d69950001cd9959,5ce9be3a7d69950001cd9959_20240212,,,6,63
4567,0,html-button-response,72,415681,0.0-72.0,5ce9be3a7d69950001cd9959,5ce9be3a7d69950001cd9959_20240212,,,4,14
2762,0,html-button-response,73,418952,0.0-73.0,5ce9be3a7d69950001cd9959,5ce9be3a7d69950001cd9959_20240212,,,5,118
3384,0,html-button-response,74,422844,0.0-74.0,5ce9be3a7d69950001cd9959,5ce9be3a7d69950001cd9959_20240212,,,7,9
2904,0,html-button-response,75,426253,0.0-75.0,5ce9be3a7d69950001cd9959,5ce9be3a7d69950001cd9959_20240212,,,5,61
3509,0,html-button-response,76,430267,0.0-76.0,5ce9be3a7d69950001cd9959,5ce9be3a7d69950001cd9959_20240212,,,5,64
5538,0,html-button-response,77,436311,0.0-77.0,5ce9be3a7d69950001cd9959,5ce9be3a7d69950001cd9959_20240212,,,4,4
3295,0,html-button-response,78,440108,0.0-78.0,5ce9be3a7d69950001cd9959,5ce9be3a7d69950001cd9959_20240212,,,4,68
2520,0,html-button-response,79,443137,0.0-79.0,5ce9be3a7d69950001cd9959,5ce9be3a7d69950001cd9959_20240212,,,5,113
18015,0,html-button-response,80,461661,0.0-80.0,5ce9be3a7d69950001cd9959,5ce9be3a7d69950001cd9959_20240212,,,1,60
4417,0,html-button-response,81,466586,0.0-81.0,5ce9be3a7d69950001cd9959,5ce9be3a7d69950001cd9959_20240212,,,8,120
8216,0,html-button-response,82,475307,0.0-82.0,5ce9be3a7d69950001cd9959,5ce9be3a7d69950001cd9959_20240212,,,8,109
3695,0,html-button-response,83,479503,0.0-83.0,5ce9be3a7d69950001cd9959,5ce9be3a7d69950001cd9959_20240212,,,2,11
3120,0,html-button-response,84,483136,0.0-84.0,5ce9be3a7d69950001cd9959,5ce9be3a7d69950001cd9959_20240212,,,6,116
4770,0,html-button-response,85,488417,0.0-85.0,5ce9be3a7d69950001cd9959,5ce9be3a7d69950001cd9959_20240212,,,7,55
3487,0,html-button-response,86,492421,0.0-86.0,5ce9be3a7d69950001cd9959,5ce9be3a7d69950001cd9959_20240212,,,2,13
4745,0,html-button-response,87,497668,0.0-87.0,5ce9be3a7d69950001cd9959,5ce9be3a7d69950001cd9959_20240212,,,9,130
2782,0,html-button-response,88,500957,0.0-88.0,5ce9be3a7d69950001cd9959,5ce9be3a7d69950001cd9959_20240212,,,9,127
2979,0,html-button-response,89,504443,0.0-89.0,5ce9be3a7d69950001cd9959,5ce9be3a7d69950001cd9959_20240212,,,9,69
3144,0,html-button-response,90,508094,0.0-90.0,5ce9be3a7d69950001cd9959,5ce9be3a7d69950001cd9959_20240212,,,2,10
4055,0,html-button-response,91,512663,0.0-91.0,5ce9be3a7d69950001cd9959,5ce9be3a7d69950001cd9959_20240212,,,9,128
4513,0,html-button-response,92,517686,0.0-92.0,5ce9be3a7d69950001cd9959,5ce9be3a7d69950001cd9959_20240212,,,5,71
3870,0,html-button-response,93,522064,0.0-93.0,5ce9be3a7d69950001cd9959,5ce9be3a7d69950001cd9959_20240212,,,8,115
3602,0,html-button-response,94,526169,0.0-94.0,5ce9be3a7d69950001cd9959,5ce9be3a7d69950001cd9959_20240212,,,9,112
3872,0,html-button-response,95,530551,0.0-95.0,5ce9be3a7d69950001cd9959,5ce9be3a7d69950001cd9959_20240212,,,8,62
3836,0,html-button-response,96,534898,0.0-96.0,5ce9be3a7d69950001cd9959,5ce9be3a7d69950001cd9959_20240212,,,8,57
3778,0,html-button-response,97,539181,0.0-97.0,5ce9be3a7d69950001cd9959,5ce9be3a7d69950001cd9959_20240212,,,4,16
3248,0,html-button-response,98,542938,0.0-98.0,5ce9be3a7d69950001cd9959,5ce9be3a7d69950001cd9959_20240212,,,9,67
5350,0,html-button-response,99,548792,0.0-99.0,5ce9be3a7d69950001cd9959,5ce9be3a7d69950001cd9959_20240212,,,4,2
3494,0,html-button-response,100,552792,0.0-100.0,5ce9be3a7d69950001cd9959,5ce9be3a7d69950001cd9959_20240212,,,3,15
3452,0,html-button-response,101,556750,0.0-101.0,5ce9be3a7d69950001cd9959,5ce9be3a7d69950001cd9959_20240212,,,8,124
3940,0,html-button-response,102,561195,0.0-102.0,5ce9be3a7d69950001cd9959,5ce9be3a7d69950001cd9959_20240212,,,9,129
5971,0,html-button-response,103,567674,0.0-103.0,5ce9be3a7d69950001cd9959,5ce9be3a7d69950001cd9959_20240212,,,6,70
8198,0,html-button-response,104,576381,0.0-104.0,5ce9be3a7d69950001cd9959,5ce9be3a7d69950001cd9959_20240212,,,7,125
4151,0,html-button-response,105,581037,0.0-105.0,5ce9be3a7d69950001cd9959,5ce9be3a7d69950001cd9959_20240212,,,5,6
7142,0,html-button-response,106,588681,0.0-106.0,5ce9be3a7d69950001cd9959,5ce9be3a7d69950001cd9959_20240212,,,8,111
4313,0,html-button-response,107,593508,0.0-107.0,5ce9be3a7d69950001cd9959,5ce9be3a7d69950001cd9959_20240212,,,9,119
3924,0,html-button-response,108,597944,0.0-108.0,5ce9be3a7d69950001cd9959,5ce9be3a7d69950001cd9959_20240212,,,9,5
6046,0,html-button-response,109,604498,0.0-109.0,5ce9be3a7d69950001cd9959,5ce9be3a7d69950001cd9959_20240212,,,1,18
3825,0,html-button-response,110,608826,0.0-110.0,5ce9be3a7d69950001cd9959,5ce9be3a7d69950001cd9959_20240212,,,9,72
2888,0,html-button-response,111,612220,0.0-111.0,5ce9be3a7d69950001cd9959,5ce9be3a7d69950001cd9959_20240212,,,8,59
4004,0,html-button-response,112,616735,0.0-112.0,5ce9be3a7d69950001cd9959,5ce9be3a7d69950001cd9959_20240212,,,4,7
3719,0,html-button-response,113,620959,0.0-113.0,5ce9be3a7d69950001cd9959,5ce9be3a7d69950001cd9959_20240212,,,5,3
5602,0,html-button-response,114,627076,0.0-114.0,5ce9be3a7d69950001cd9959,5ce9be3a7d69950001cd9959_20240212,,,8,65
2968,0,html-button-response,115,630549,0.0-115.0,5ce9be3a7d69950001cd9959,5ce9be3a7d69950001cd9959_20240212,,,9,122
2776,0,html-button-response,116,633836,0.0-116.0,5ce9be3a7d69950001cd9959,5ce9be3a7d69950001cd9959_20240212,,,9,126
3223,0,html-button-response,117,637561,0.0-117.0,5ce9be3a7d69950001cd9959,5ce9be3a7d69950001cd9959_20240212,,,9,117
2956,0,html-button-response,118,641029,0.0-118.0,5ce9be3a7d69950001cd9959,5ce9be3a7d69950001cd9959_20240212,,,8,66
2850,0,html-button-response,119,644388,0.0-119.0,5ce9be3a7d69950001cd9959,5ce9be3a7d69950001cd9959_20240212,,,9,131
3688,0,html-button-response,120,648591,0.0-120.0,5ce9be3a7d69950001cd9959,5ce9be3a7d69950001cd9959_20240212,,,9,121
4496,0,html-button-response,121,653597,0.0-121.0,5ce9be3a7d69950001cd9959,5ce9be3a7d69950001cd9959_20240212,,,4,17
3564,0,html-button-response,122,657671,0.0-122.0,5ce9be3a7d69950001cd9959,5ce9be3a7d69950001cd9959_20240212,,,3,12
4486,0,html-button-response,123,662667,0.0-123.0,5ce9be3a7d69950001cd9959,5ce9be3a7d69950001cd9959_20240212,,,9,110
2870,0,html-button-response,124,666053,0.0-124.0,5ce9be3a7d69950001cd9959,5ce9be3a7d69950001cd9959_20240212,,,9,114
4609,0,html-button-response,125,671175,0.0-125.0,5ce9be3a7d69950001cd9959,5ce9be3a7d69950001cd9959_20240212,,,1,1
13490,0,html-button-response,126,685179,0.0-126.0,5ce9be3a7d69950001cd9959,5ce9be3a7d69950001cd9959_20240212,,,,
14657,0,html-button-response,127,700346,0.0-127.0,5ce9be3a7d69950001cd9959,5ce9be3a7d69950001cd9959_20240212,,,1,53
3712,0,html-button-response,128,704562,0.0-128.0,5ce9be3a7d69950001cd9959,5ce9be3a7d69950001cd9959_20240212,,,5,93
2885,0,html-button-response,129,707952,0.0-129.0,5ce9be3a7d69950001cd9959,5ce9be3a7d69950001cd9959_20240212,,,5,91
3256,0,html-button-response,130,711721,0.0-130.0,5ce9be3a7d69950001cd9959,5ce9be3a7d69950001cd9959_20240212,,,6,162
3345,0,html-button-response,131,715578,0.0-131.0,5ce9be3a7d69950001cd9959,5ce9be3a7d69950001cd9959_20240212,,,9,100
5195,0,html-button-response,132,721283,0.0-132.0,5ce9be3a7d69950001cd9959,5ce9be3a7d69950001cd9959_20240212,,,4,176
2653,0,html-button-response,133,724450,0.0-133.0,5ce9be3a7d69950001cd9959,5ce9be3a7d69950001cd9959_20240212,,,4,165
3550,0,html-button-response,134,728503,0.0-134.0,5ce9be3a7d69950001cd9959,5ce9be3a7d69950001cd9959_20240212,,,1,51
3186,0,html-button-response,135,732199,0.0-135.0,5ce9be3a7d69950001cd9959,5ce9be3a7d69950001cd9959_20240212,,,2,48
3246,0,html-button-response,136,735949,0.0-136.0,5ce9be3a7d69950001cd9959,5ce9be3a7d69950001cd9959_20240212,,,9,97
5465,0,html-button-response,137,741918,0.0-137.0,5ce9be3a7d69950001cd9959,5ce9be3a7d69950001cd9959_20240212,,,2,52
4301,0,html-button-response,138,746725,0.0-138.0,5ce9be3a7d69950001cd9959,5ce9be3a7d69950001cd9959_20240212,,,2,183
5161,0,html-button-response,139,752390,0.0-139.0,5ce9be3a7d69950001cd9959,5ce9be3a7d69950001cd9959_20240212,,,8,163
3625,0,html-button-response,140,756531,0.0-140.0,5ce9be3a7d69950001cd9959,5ce9be3a7d69950001cd9959_20240212,,,1,45
3908,0,html-button-response,141,760948,0.0-141.0,5ce9be3a7d69950001cd9959,5ce9be3a7d69950001cd9959_20240212,,,8,156
3373,0,html-button-response,142,764829,0.0-142.0,5ce9be3a7d69950001cd9959,5ce9be3a7d69950001cd9959_20240212,,,8,96
3176,0,html-button-response,143,768511,0.0-143.0,5ce9be3a7d69950001cd9959,5ce9be3a7d69950001cd9959_20240212,,,8,170
3675,0,html-button-response,144,772697,0.0-144.0,5ce9be3a7d69950001cd9959,5ce9be3a7d69950001cd9959_20240212,,,4,106
3856,0,html-button-response,145,777063,0.0-145.0,5ce9be3a7d69950001cd9959,5ce9be3a7d69950001cd9959_20240212,,,7,92
3696,0,html-button-response,146,781266,0.0-146.0,5ce9be3a7d69950001cd9959,5ce9be3a7d69950001cd9959_20240212,,,8,104
5712,0,html-button-response,147,787483,0.0-147.0,5ce9be3a7d69950001cd9959,5ce9be3a7d69950001cd9959_20240212,,,9,99
3504,0,html-button-response,148,791491,0.0-148.0,5ce9be3a7d69950001cd9959,5ce9be3a7d69950001cd9959_20240212,,,1,47
3055,0,html-button-response,149,795050,0.0-149.0,5ce9be3a7d69950001cd9959,5ce9be3a7d69950001cd9959_20240212,,,9,98
2980,0,html-button-response,150,798538,0.0-150.0,5ce9be3a7d69950001cd9959,5ce9be3a7d69950001cd9959_20240212,,,6,155
3149,0,html-button-response,151,802197,0.0-151.0,5ce9be3a7d69950001cd9959,5ce9be3a7d69950001cd9959_20240212,,,3,95
5245,0,html-button-response,152,807954,0.0-152.0,5ce9be3a7d69950001cd9959,5ce9be3a7d69950001cd9959_20240212,,,3,50
3812,0,html-button-response,153,812274,0.0-153.0,5ce9be3a7d69950001cd9959,5ce9be3a7d69950001cd9959_20240212,,,6,157
3773,0,html-button-response,154,816563,0.0-154.0,5ce9be3a7d69950001cd9959,5ce9be3a7d69950001cd9959_20240212,,,2,43
3681,0,html-button-response,155,820751,0.0-155.0,5ce9be3a7d69950001cd9959,5ce9be3a7d69950001cd9959_20240212,,,1,182
3041,0,html-button-response,156,824306,0.0-156.0,5ce9be3a7d69950001cd9959,5ce9be3a7d69950001cd9959_20240212,,,6,167
3460,0,html-button-response,157,828279,0.0-157.0,5ce9be3a7d69950001cd9959,5ce9be3a7d69950001cd9959_20240212,,,2,42
4372,0,html-button-response,158,833167,0.0-158.0,5ce9be3a7d69950001cd9959,5ce9be3a7d69950001cd9959_20240212,,,7,108
4916,0,html-button-response,159,838592,0.0-159.0,5ce9be3a7d69950001cd9959,5ce9be3a7d69950001cd9959_20240212,,,6,174
4931,0,html-button-response,160,844030,0.0-160.0,5ce9be3a7d69950001cd9959,5ce9be3a7d69950001cd9959_20240212,,,5,171
3036,0,html-button-response,161,847577,0.0-161.0,5ce9be3a7d69950001cd9959,5ce9be3a7d69950001cd9959_20240212,,,9,101
3852,0,html-button-response,162,851933,0.0-162.0,5ce9be3a7d69950001cd9959,5ce9be3a7d69950001cd9959_20240212,,,1,44
3193,0,html-button-response,163,855630,0.0-163.0,5ce9be3a7d69950001cd9959,5ce9be3a7d69950001cd9959_20240212,,,2,39
3862,0,html-button-response,164,860001,0.0-164.0,5ce9be3a7d69950001cd9959,5ce9be3a7d69950001cd9959_20240212,,,5,37
2940,0,html-button-response,165,863445,0.0-165.0,5ce9be3a7d69950001cd9959,5ce9be3a7d69950001cd9959_20240212,,,1,38
3480,0,html-button-response,166,867430,0.0-166.0,5ce9be3a7d69950001cd9959,5ce9be3a7d69950001cd9959_20240212,,,1,168
3366,0,html-button-response,167,871308,0.0-167.0,5ce9be3a7d69950001cd9959,5ce9be3a7d69950001cd9959_20240212,,,1,161
3613,0,html-button-response,168,875423,0.0-168.0,5ce9be3a7d69950001cd9959,5ce9be3a7d69950001cd9959_20240212,,,4,175
3045,0,html-button-response,169,878975,0.0-169.0,5ce9be3a7d69950001cd9959,5ce9be3a7d69950001cd9959_20240212,,,2,46
2910,0,html-button-response,170,882394,0.0-170.0,5ce9be3a7d69950001cd9959,5ce9be3a7d69950001cd9959_20240212,,,1,41
3199,0,html-button-response,171,886102,0.0-171.0,5ce9be3a7d69950001cd9959,5ce9be3a7d69950001cd9959_20240212,,,1,49
3507,0,html-button-response,172,890112,0.0-172.0,5ce9be3a7d69950001cd9959,5ce9be3a7d69950001cd9959_20240212,,,1,181
2972,0,html-button-response,173,893592,0.0-173.0,5ce9be3a7d69950001cd9959,5ce9be3a7d69950001cd9959_20240212,,,7,164
2865,0,html-button-response,174,896972,0.0-174.0,5ce9be3a7d69950001cd9959,5ce9be3a7d69950001cd9959_20240212,,,3,173
3983,0,html-button-response,175,901458,0.0-175.0,5ce9be3a7d69950001cd9959,5ce9be3a7d69950001cd9959_20240212,,,8,169
2862,0,html-button-response,176,904827,0.0-176.0,5ce9be3a7d69950001cd9959,5ce9be3a7d69950001cd9959_20240212,,,2,105
2781,0,html-button-response,177,908119,0.0-177.0,5ce9be3a7d69950001cd9959,5ce9be3a7d69950001cd9959_20240212,,,1,40
3072,0,html-button-response,178,911701,0.0-178.0,5ce9be3a7d69950001cd9959,5ce9be3a7d69950001cd9959_20240212,,,9,94
3638,0,html-button-response,179,915846,0.0-179.0,5ce9be3a7d69950001cd9959,5ce9be3a7d69950001cd9959_20240212,,,9,103
2821,0,html-button-response,180,919172,0.0-180.0,5ce9be3a7d69950001cd9959,5ce9be3a7d69950001cd9959_20240212,,,8,107
3013,0,html-button-response,181,922690,0.0-181.0,5ce9be3a7d69950001cd9959,5ce9be3a7d69950001cd9959_20240212,,,1,54
4213,0,html-button-response,182,927405,0.0-182.0,5ce9be3a7d69950001cd9959,5ce9be3a7d69950001cd9959_20240212,,,5,158
2499,0,html-button-response,183,930412,0.0-183.0,5ce9be3a7d69950001cd9959,5ce9be3a7d69950001cd9959_20240212,,,3,172
3545,0,html-button-response,184,934470,0.0-184.0,5ce9be3a7d69950001cd9959,5ce9be3a7d69950001cd9959_20240212,,,4,166
2851,0,html-button-response,185,937831,0.0-185.0,5ce9be3a7d69950001cd9959,5ce9be3a7d69950001cd9959_20240212,,,3,177
2609,0,html-button-response,186,940948,0.0-186.0,5ce9be3a7d69950001cd9959,5ce9be3a7d69950001cd9959_20240212,,,6,159
2511,0,html-button-response,187,943966,0.0-187.0,5ce9be3a7d69950001cd9959,5ce9be3a7d69950001cd9959_20240212,,,6,160
32937,0,html-button-response,188,977412,0.0-188.0,5ce9be3a7d69950001cd9959,5ce9be3a7d69950001cd9959_20240212,,,8,102
3442,0,html-button-response,189,981366,0.0-189.0,5ce9be3a7d69950001cd9959,5ce9be3a7d69950001cd9959_20240212,,"Thank you. You have reached the end. 
                       <br>Click the button below to reveal your compensation.
                        <br><br>",,