"rt","response","trial_type","trial_index","time_elapsed","internal_node_id","part_ID","ID_DATE","screen_id","stimulus","rating","img_id"
"9610","0","html-button-response","0","9617","0.0-0.0","65adef062a188d698a4e6665","65adef062a188d698a4e6665_20240212","","","",""
"2919","[object Object]","survey-html-form","1","13048","0.0-1.0","65adef062a188d698a4e6665","65adef062a188d698a4e6665_20240212","prolific_id_page","","",""
"23707","0","html-button-response","2","36755","0.0-2.0","65adef062a188d698a4e6665","65adef062a188d698a4e6665_20240212","","","",""
"1905","0","html-button-response","3","39176","0.0-3.0","65adef062a188d698a4e6665","65adef062a188d698a4e6665_20240212","","
<div>
Great! You will now go on to rate the faces.
<br><br>
</div>
","",""
"7514","0","html-button-response","4","47192","0.0-4.0","65adef062a188d698a4e6665","65adef062a188d698a4e6665_20240212","","","9","4"
"3177","0","html-button-response","5","50881","0.0-5.0","65adef062a188d698a4e6665","65adef062a188d698a4e6665_20240212","","","9","119"
"3790","0","html-button-response","6","55177","0.0-6.0","65adef062a188d698a4e6665","65adef062a188d698a4e6665_20240212","","","9","8"
"2922","0","html-button-response","7","58603","0.0-7.0","65adef062a188d698a4e6665","65adef062a188d698a4e6665_20240212","","","9","70"
"2701","0","html-button-response","8","61815","0.0-8.0","65adef062a188d698a4e6665","65adef062a188d698a4e6665_20240212","","","5","63"
"4556","0","html-button-response","9","66886","0.0-9.0","65adef062a188d698a4e6665","65adef062a188d698a4e6665_20240212","","","9","120"
"2571","0","html-button-response","10","69970","0.0-10.0","65adef062a188d698a4e6665","65adef062a188d698a4e6665_20240212","","","9","64"
"4699","0","html-button-response","11","75174","0.0-11.0","65adef062a188d698a4e6665","65adef062a188d698a4e6665_20240212","","","9","109"
"4583","0","html-button-response","12","80259","0.0-12.0","65adef062a188d698a4e6665","65adef062a188d698a4e6665_20240212","","","4","71"
"2621","0","html-button-response","13","83395","0.0-13.0","65adef062a188d698a4e6665","65adef062a188d698a4e6665_20240212","","","3","12"
"2739","0","html-button-response","14","86642","0.0-14.0","65adef062a188d698a4e6665","65adef062a188d698a4e6665_20240212","","","7","131"
"6862","0","html-button-response","15","94011","0.0-15.0","65adef062a188d698a4e6665","65adef062a188d698a4e6665_20240212","","","5","1"
"1943","0","html-button-response","16","96459","0.0-16.0","65adef062a188d698a4e6665","65adef062a188d698a4e6665_20240212","","","9","118"
"1897","0","html-button-response","17","98857","0.0-17.0","65adef062a188d698a4e6665","65adef062a188d698a4e6665_20240212","","","4","59"
"1943","0","html-button-response","18","101312","0.0-18.0","65adef062a188d698a4e6665","65adef062a188d698a4e6665_20240212","","","4","110"
"5041","0","html-button-response","19","106867","0.0-19.0","65adef062a188d698a4e6665","65adef062a188d698a4e6665_20240212","","","9","114"
"2659","0","html-button-response","20","110034","0.0-20.0","65adef062a188d698a4e6665","65adef062a188d698a4e6665_20240212","","","9","68"
"2232","0","html-button-response","21","112776","0.0-21.0","65adef062a188d698a4e6665","65adef062a188d698a4e6665_20240212","","","9","62"
"4655","0","html-button-response","22","117934","0.0-22.0","65adef062a188d698a4e6665","65adef062a188d698a4e6665_20240212","","","9","116"
"2301","0","html-button-response","23","120743","0.0-23.0","65adef062a188d698a4e6665","65adef062a188d698a4e6665_20240212","","","9","124"
"2088","0","html-button-response","24","123345","0.0-24.0","65adef062a188d698a4e6665","65adef062a188d698a4e6665_20240212","","","9","113"
"3450","0","html-button-response","25","127303","0.0-25.0","65adef062a188d698a4e6665","65adef062a188d698a4e6665_20240212","","","9","126"
"3037","0","html-button-response","26","130851","0.0-26.0","65adef062a188d698a4e6665","65adef062a188d698a4e6665_20240212","","","3","16"
"1708","0","html-button-response","27","133066","0.0-27.0","65adef062a188d698a4e6665","65adef062a188d698a4e6665_20240212","","","5","17"
"2119","0","html-button-response","28","135700","0.0-28.0","65adef062a188d698a4e6665","65adef062a188d698a4e6665_20240212","","","1","9"
"5295","0","html-button-response","29","141509","0.0-29.0","65adef062a188d698a4e6665","65adef062a188d698a4e6665_20240212","","","3","13"
"2420","0","html-button-response","30","144444","0.0-30.0","65adef062a188d698a4e6665","65adef062a188d698a4e6665_20240212","","","2","2"
"1697","0","html-button-response","31","146642","0.0-31.0","65adef062a188d698a4e6665","65adef062a188d698a4e6665_20240212","","","9","125"
"3562","0","html-button-response","32","150718","0.0-32.0","65adef062a188d698a4e6665","65adef062a188d698a4e6665_20240212","","","2","10"
"4049","0","html-button-response","33","155280","0.0-33.0","65adef062a188d698a4e6665","65adef062a188d698a4e6665_20240212","","","9","112"
"1850","0","html-button-response","34","157646","0.0-34.0","65adef062a188d698a4e6665","65adef062a188d698a4e6665_20240212","","","5","115"
"1966","0","html-button-response","35","160122","0.0-35.0","65adef062a188d698a4e6665","65adef062a188d698a4e6665_20240212","","","1","3"
"2012","0","html-button-response","36","162639","0.0-36.0","65adef062a188d698a4e6665","65adef062a188d698a4e6665_20240212","","","5","66"
"1679","0","html-button-response","37","164825","0.0-37.0","65adef062a188d698a4e6665","65adef062a188d698a4e6665_20240212","","","5","111"
"2321","0","html-button-response","38","167659","0.0-38.0","65adef062a188d698a4e6665","65adef062a188d698a4e6665_20240212","","","9","117"
"3344","0","html-button-response","39","171511","0.0-39.0","65adef062a188d698a4e6665","65adef062a188d698a4e6665_20240212","","","6","69"
"1765","0","html-button-response","40","173785","0.0-40.0","65adef062a188d698a4e6665","65adef062a188d698a4e6665_20240212","","","5","6"
"3237","0","html-button-response","41","177527","0.0-41.0","65adef062a188d698a4e6665","65adef062a188d698a4e6665_20240212","","","5","7"
"3062","0","html-button-response","42","181099","0.0-42.0","65adef062a188d698a4e6665","65adef062a188d698a4e6665_20240212","","","8","18"
"2041","0","html-button-response","43","183652","0.0-43.0","65adef062a188d698a4e6665","65adef062a188d698a4e6665_20240212","","","5","122"
"3054","0","html-button-response","44","187214","0.0-44.0","65adef062a188d698a4e6665","65adef062a188d698a4e6665_20240212","","","5","57"
"3184","0","html-button-response","45","190903","0.0-45.0","65adef062a188d698a4e6665","65adef062a188d698a4e6665_20240212","","","9","5"
"1552","0","html-button-response","46","192970","0.0-46.0","65adef062a188d698a4e6665","65adef062a188d698a4e6665_20240212","","","9","128"
"1256","0","html-button-response","47","194727","0.0-47.0","65adef062a188d698a4e6665","65adef062a188d698a4e6665_20240212","","","9","65"
"1302","0","html-button-response","48","196542","0.0-48.0","65adef062a188d698a4e6665","65adef062a188d698a4e6665_20240212","","","9","129"
"1447","0","html-button-response","49","198492","0.0-49.0","65adef062a188d698a4e6665","65adef062a188d698a4e6665_20240212","","","5","55"
"2053","0","html-button-response","50","201056","0.0-50.0","65adef062a188d698a4e6665","65adef062a188d698a4e6665_20240212","","","5","61"
"7194","0","html-button-response","51","208761","0.0-51.0","65adef062a188d698a4e6665","65adef062a188d698a4e6665_20240212","","","5","127"
"1907","0","html-button-response","52","211172","0.0-52.0","65adef062a188d698a4e6665","65adef062a188d698a4e6665_20240212","","","6","123"
"2107","0","html-button-response","53","213784","0.0-53.0","65adef062a188d698a4e6665","65adef062a188d698a4e6665_20240212","","","2","60"
"1531","0","html-button-response","54","215819","0.0-54.0","65adef062a188d698a4e6665","65adef062a188d698a4e6665_20240212","","","3","58"
"2813","0","html-button-response","55","219138","0.0-55.0","65adef062a188d698a4e6665","65adef062a188d698a4e6665_20240212","","","5","72"
"1964","0","html-button-response","56","221618","0.0-56.0","65adef062a188d698a4e6665","65adef062a188d698a4e6665_20240212","","","1","14"
"3776","0","html-button-response","57","225902","0.0-57.0","65adef062a188d698a4e6665","65adef062a188d698a4e6665_20240212","","","9","15"
"1609","0","html-button-response","58","228024","0.0-58.0","65adef062a188d698a4e6665","65adef062a188d698a4e6665_20240212","","","1","11"
"2726","0","html-button-response","59","231257","0.0-59.0","65adef062a188d698a4e6665","65adef062a188d698a4e6665_20240212","","","5","121"
"1004","0","html-button-response","60","232769","0.0-60.0","65adef062a188d698a4e6665","65adef062a188d698a4e6665_20240212","","","5","56"
"3194","0","html-button-response","61","236466","0.0-61.0","65adef062a188d698a4e6665","65adef062a188d698a4e6665_20240212","","","2","130"
"1414","0","html-button-response","62","238386","0.0-62.0","65adef062a188d698a4e6665","65adef062a188d698a4e6665_20240212","","","5","67"
"1267","0","html-button-response","63","240163","0.0-63.0","65adef062a188d698a4e6665","65adef062a188d698a4e6665_20240212","","","",""
"6440","0","html-button-response","64","247111","0.0-64.0","65adef062a188d698a4e6665","65adef062a188d698a4e6665_20240212","","","5","20"
"1920","0","html-button-response","65","249542","0.0-65.0","65adef062a188d698a4e6665","65adef062a188d698a4e6665_20240212","","","9","23"
"2177","0","html-button-response","66","252225","0.0-66.0","65adef062a188d698a4e6665","65adef062a188d698a4e6665_20240212","","","5","33"
"1841","0","html-button-response","67","254580","0.0-67.0","65adef062a188d698a4e6665","65adef062a188d698a4e6665_20240212","","","9","150"
"2450","0","html-button-response","68","257538","0.0-68.0","65adef062a188d698a4e6665","65adef062a188d698a4e6665_20240212","","","9","140"
"1225","0","html-button-response","69","259267","0.0-69.0","65adef062a188d698a4e6665","65adef062a188d698a4e6665_20240212","","","9","132"
"1491","0","html-button-response","70","261261","0.0-70.0","65adef062a188d698a4e6665","65adef062a188d698a4e6665_20240212","","","9","82"
"1185","0","html-button-response","71","262960","0.0-71.0","65adef062a188d698a4e6665","65adef062a188d698a4e6665_20240212","","","9","78"
"1507","0","html-button-response","72","264979","0.0-72.0","65adef062a188d698a4e6665","65adef062a188d698a4e6665_20240212","","","6","31"
"1865","0","html-button-response","73","267361","0.0-73.0","65adef062a188d698a4e6665","65adef062a188d698a4e6665_20240212","","","5","25"
"1402","0","html-button-response","74","269272","0.0-74.0","65adef062a188d698a4e6665","65adef062a188d698a4e6665_20240212","","","9","80"
"1162","0","html-button-response","75","270941","0.0-75.0","65adef062a188d698a4e6665","65adef062a188d698a4e6665_20240212","","","9","137"
"2183","0","html-button-response","76","273625","0.0-76.0","65adef062a188d698a4e6665","65adef062a188d698a4e6665_20240212","","","9","87"
"1735","0","html-button-response","77","275868","0.0-77.0","65adef062a188d698a4e6665","65adef062a188d698a4e6665_20240212","","","6","149"
"1881","0","html-button-response","78","278261","0.0-78.0","65adef062a188d698a4e6665","65adef062a188d698a4e6665_20240212","","","8","144"
"1549","0","html-button-response","79","280311","0.0-79.0","65adef062a188d698a4e6665","65adef062a188d698a4e6665_20240212","","","9","85"
"1776","0","html-button-response","80","282595","0.0-80.0","65adef062a188d698a4e6665","65adef062a188d698a4e6665_20240212","","","6","146"
"2517","0","html-button-response","81","285628","0.0-81.0","65adef062a188d698a4e6665","65adef062a188d698a4e6665_20240212","","","7","141"
"2644","0","html-button-response","82","288783","0.0-82.0","65adef062a188d698a4e6665","65adef062a188d698a4e6665_20240212","","","9","179"
"1995","0","html-button-response","83","291293","0.0-83.0","65adef062a188d698a4e6665","65adef062a188d698a4e6665_20240212","","","7","135"
"2575","0","html-button-response","84","294380","0.0-84.0","65adef062a188d698a4e6665","65adef062a188d698a4e6665_20240212","","","2","34"
"1857","0","html-button-response","85","296741","0.0-85.0","65adef062a188d698a4e6665","65adef062a188d698a4e6665_20240212","","","4","22"
"1262","0","html-button-response","86","298510","0.0-86.0","65adef062a188d698a4e6665","65adef062a188d698a4e6665_20240212","","","5","26"
"1804","0","html-button-response","87","300828","0.0-87.0","65adef062a188d698a4e6665","65adef062a188d698a4e6665_20240212","","","6","180"
"1522","0","html-button-response","88","302862","0.0-88.0","65adef062a188d698a4e6665","65adef062a188d698a4e6665_20240212","","","7","76"
"1280","0","html-button-response","89","304655","0.0-89.0","65adef062a188d698a4e6665","65adef062a188d698a4e6665_20240212","","","9","138"
"1691","0","html-button-response","90","306854","0.0-90.0","65adef062a188d698a4e6665","65adef062a188d698a4e6665_20240212","","","9","133"
"2625","0","html-button-response","91","309992","0.0-91.0","65adef062a188d698a4e6665","65adef062a188d698a4e6665_20240212","","","9","145"
"2117","0","html-button-response","92","312625","0.0-92.0","65adef062a188d698a4e6665","65adef062a188d698a4e6665_20240212","","","9","83"
"1287","0","html-button-response","93","314423","0.0-93.0","65adef062a188d698a4e6665","65adef062a188d698a4e6665_20240212","","","9","178"
"1676","0","html-button-response","94","316613","0.0-94.0","65adef062a188d698a4e6665","65adef062a188d698a4e6665_20240212","","","5","21"
"2985","0","html-button-response","95","320127","0.0-95.0","65adef062a188d698a4e6665","65adef062a188d698a4e6665_20240212","","","4","29"
"3323","0","html-button-response","96","323965","0.0-96.0","65adef062a188d698a4e6665","65adef062a188d698a4e6665_20240212","","","8","73"
"3394","0","html-button-response","97","327862","0.0-97.0","65adef062a188d698a4e6665","65adef062a188d698a4e6665_20240212","","","9","136"
"1403","0","html-button-response","98","329771","0.0-98.0","65adef062a188d698a4e6665","65adef062a188d698a4e6665_20240212","","","9","74"
"2572","0","html-button-response","99","332855","0.0-99.0","65adef062a188d698a4e6665","65adef062a188d698a4e6665_20240212","","","7","147"
"2311","0","html-button-response","100","335671","0.0-100.0","65adef062a188d698a4e6665","65adef062a188d698a4e6665_20240212","","","7","81"
"1399","0","html-button-response","101","337572","0.0-101.0","65adef062a188d698a4e6665","65adef062a188d698a4e6665_20240212","","","7","75"
"2648","0","html-button-response","102","340735","0.0-102.0","65adef062a188d698a4e6665","65adef062a188d698a4e6665_20240212","","","2","19"
"2946","0","html-button-response","103","344188","0.0-103.0","65adef062a188d698a4e6665","65adef062a188d698a4e6665_20240212","","","3","30"
"2370","0","html-button-response","104","347061","0.0-104.0","65adef062a188d698a4e6665","65adef062a188d698a4e6665_20240212","","","5","142"
"1966","0","html-button-response","105","349536","0.0-105.0","65adef062a188d698a4e6665","65adef062a188d698a4e6665_20240212","","","5","148"
"2221","0","html-button-response","106","352266","0.0-106.0","65adef062a188d698a4e6665","65adef062a188d698a4e6665_20240212","","","7","153"
"1544","0","html-button-response","107","354324","0.0-107.0","65adef062a188d698a4e6665","65adef062a188d698a4e6665_20240212","","","9","86"
"2290","0","html-button-response","108","357120","0.0-108.0","65adef062a188d698a4e6665","65adef062a188d698a4e6665_20240212","","","1","35"
"2230","0","html-button-response","109","359861","0.0-109.0","65adef062a188d698a4e6665","65adef062a188d698a4e6665_20240212","","","4","24"
"1829","0","html-button-response","110","362199","0.0-110.0","65adef062a188d698a4e6665","65adef062a188d698a4e6665_20240212","","","5","84"
"1430","0","html-button-response","111","364131","0.0-111.0","65adef062a188d698a4e6665","65adef062a188d698a4e6665_20240212","","","9","89"
"3398","0","html-button-response","112","368046","0.0-112.0","65adef062a188d698a4e6665","65adef062a188d698a4e6665_20240212","","","6","143"
"44234","0","html-button-response","113","412795","0.0-113.0","65adef062a188d698a4e6665","65adef062a188d698a4e6665_20240212","","","9","88"
"2022","0","html-button-response","114","415367","0.0-114.0","65adef062a188d698a4e6665","65adef062a188d698a4e6665_20240212","","","6","134"
"2161","0","html-button-response","115","418031","0.0-115.0","65adef062a188d698a4e6665","65adef062a188d698a4e6665_20240212","","","2","32"
"2841","0","html-button-response","116","421418","0.0-116.0","65adef062a188d698a4e6665","65adef062a188d698a4e6665_20240212","","","8","79"
"3575","0","html-button-response","117","425497","0.0-117.0","65adef062a188d698a4e6665","65adef062a188d698a4e6665_20240212","","","9","77"
"2421","0","html-button-response","118","428427","0.0-118.0","65adef062a188d698a4e6665","65adef062a188d698a4e6665_20240212","","","7","151"
"1981","0","html-button-response","119","430945","0.0-119.0","65adef062a188d698a4e6665","65adef062a188d698a4e6665_20240212","","","1","27"
"1473","0","html-button-response","120","432934","0.0-120.0","65adef062a188d698a4e6665","65adef062a188d698a4e6665_20240212","","","6","90"
"2783","0","html-button-response","121","436234","0.0-121.0","65adef062a188d698a4e6665","65adef062a188d698a4e6665_20240212","","","6","154"
"2174","0","html-button-response","122","438940","0.0-122.0","65adef062a188d698a4e6665","65adef062a188d698a4e6665_20240212","","","8","152"
"1647","0","html-button-response","123","441101","0.0-123.0","65adef062a188d698a4e6665","65adef062a188d698a4e6665_20240212","","","1","36"
"2559","0","html-button-response","124","444175","0.0-124.0","65adef062a188d698a4e6665","65adef062a188d698a4e6665_20240212","","","2","28"
"3081","0","html-button-response","125","447763","0.0-125.0","65adef062a188d698a4e6665","65adef062a188d698a4e6665_20240212","","","7","139"
"921","0","html-button-response","126","449197","0.0-126.0","65adef062a188d698a4e6665","65adef062a188d698a4e6665_20240212","","","",""
"3316","0","html-button-response","127","453020","0.0-127.0","65adef062a188d698a4e6665","65adef062a188d698a4e6665_20240212","","","9","164"
"1977","0","html-button-response","128","455503","0.0-128.0","65adef062a188d698a4e6665","65adef062a188d698a4e6665_20240212","","","5","49"
"3733","0","html-button-response","129","459793","0.0-129.0","65adef062a188d698a4e6665","65adef062a188d698a4e6665_20240212","","","8","162"
"3483","0","html-button-response","130","463778","0.0-130.0","65adef062a188d698a4e6665","65adef062a188d698a4e6665_20240212","","","1","42"
"1958","0","html-button-response","131","466242","0.0-131.0","65adef062a188d698a4e6665","65adef062a188d698a4e6665_20240212","","","2","177"
"2086","0","html-button-response","132","468835","0.0-132.0","65adef062a188d698a4e6665","65adef062a188d698a4e6665_20240212","","","5","174"
"5299","0","html-button-response","133","474650","0.0-133.0","65adef062a188d698a4e6665","65adef062a188d698a4e6665_20240212","","","1","161"
"1878","0","html-button-response","134","477033","0.0-134.0","65adef062a188d698a4e6665","65adef062a188d698a4e6665_20240212","","","2","157"
"37239","0","html-button-response","135","514779","0.0-135.0","65adef062a188d698a4e6665","65adef062a188d698a4e6665_20240212","","","1","93"
"2101","0","html-button-response","136","517382","0.0-136.0","65adef062a188d698a4e6665","65adef062a188d698a4e6665_20240212","","","9","100"
"1531","0","html-button-response","137","519421","0.0-137.0","65adef062a188d698a4e6665","65adef062a188d698a4e6665_20240212","","","1","54"
"1602","0","html-button-response","138","521534","0.0-138.0","65adef062a188d698a4e6665","65adef062a188d698a4e6665_20240212","","","1","52"
"2607","0","html-button-response","139","524657","0.0-139.0","65adef062a188d698a4e6665","65adef062a188d698a4e6665_20240212","","","2","168"
"2151","0","html-button-response","140","527318","0.0-140.0","65adef062a188d698a4e6665","65adef062a188d698a4e6665_20240212","","","3","159"
"1972","0","html-button-response","141","529801","0.0-141.0","65adef062a188d698a4e6665","65adef062a188d698a4e6665_20240212","","","2","106"
"1876","0","html-button-response","142","532190","0.0-142.0","65adef062a188d698a4e6665","65adef062a188d698a4e6665_20240212","","","1","173"
"4234","0","html-button-response","143","536928","0.0-143.0","65adef062a188d698a4e6665","65adef062a188d698a4e6665_20240212","","","5","170"
"1627","0","html-button-response","144","539065","0.0-144.0","65adef062a188d698a4e6665","65adef062a188d698a4e6665_20240212","","","9","107"
"1879","0","html-button-response","145","541447","0.0-145.0","65adef062a188d698a4e6665","65adef062a188d698a4e6665_20240212","","","1","44"
"1498","0","html-button-response","146","543454","0.0-146.0","65adef062a188d698a4e6665","65adef062a188d698a4e6665_20240212","","","1","43"
"2400","0","html-button-response","147","546363","0.0-147.0","65adef062a188d698a4e6665","65adef062a188d698a4e6665_20240212","","","8","102"
"2157","0","html-button-response","148","549031","0.0-148.0","65adef062a188d698a4e6665","65adef062a188d698a4e6665_20240212","","","1","46"
"2571","0","html-button-response","149","552106","0.0-149.0","65adef062a188d698a4e6665","65adef062a188d698a4e6665_20240212","","","2","156"
"2840","0","html-button-response","150","555460","0.0-150.0","65adef062a188d698a4e6665","65adef062a188d698a4e6665_20240212","","","1","37"
"2261","0","html-button-response","151","558234","0.0-151.0","65adef062a188d698a4e6665","65adef062a188d698a4e6665_20240212","","","1","50"
"13120","0","html-button-response","152","571862","0.0-152.0","65adef062a188d698a4e6665","65adef062a188d698a4e6665_20240212","","","1","166"
"4318","0","html-button-response","153","576687","0.0-153.0","65adef062a188d698a4e6665","65adef062a188d698a4e6665_20240212","","","1","155"
"7318","0","html-button-response","154","584509","0.0-154.0","65adef062a188d698a4e6665","65adef062a188d698a4e6665_20240212","","","1","40"
"3809","0","html-button-response","155","588825","0.0-155.0","65adef062a188d698a4e6665","65adef062a188d698a4e6665_20240212","","","2","171"
"1932","0","html-button-response","156","591260","0.0-156.0","65adef062a188d698a4e6665","65adef062a188d698a4e6665_20240212","","","1","108"
"3326","0","html-button-response","157","595087","0.0-157.0","65adef062a188d698a4e6665","65adef062a188d698a4e6665_20240212","","","2","41"
"1484","0","html-button-response","158","597072","0.0-158.0","65adef062a188d698a4e6665","65adef062a188d698a4e6665_20240212","","","1","53"
"2654","0","html-button-response","159","600233","0.0-159.0","65adef062a188d698a4e6665","65adef062a188d698a4e6665_20240212","","","5","92"
"2917","0","html-button-response","160","603658","0.0-160.0","65adef062a188d698a4e6665","65adef062a188d698a4e6665_20240212","","","1","182"
"4074","0","html-button-response","161","608247","0.0-161.0","65adef062a188d698a4e6665","65adef062a188d698a4e6665_20240212","","","1","47"
"2057","0","html-button-response","162","610810","0.0-162.0","65adef062a188d698a4e6665","65adef062a188d698a4e6665_20240212","","","2","181"
"3245","0","html-button-response","163","614562","0.0-163.0","65adef062a188d698a4e6665","65adef062a188d698a4e6665_20240212","","","1","38"
"2198","0","html-button-response","164","617265","0.0-164.0","65adef062a188d698a4e6665","65adef062a188d698a4e6665_20240212","","","1","91"
"1992","0","html-button-response","165","619774","0.0-165.0","65adef062a188d698a4e6665","65adef062a188d698a4e6665_20240212","","","5","175"
"2205","0","html-button-response","166","622493","0.0-166.0","65adef062a188d698a4e6665","65adef062a188d698a4e6665_20240212","","","9","94"
"449635","0","html-button-response","167","1072634","0.0-167.0","65adef062a188d698a4e6665","65adef062a188d698a4e6665_20240212","","","9","103"
"2058","0","html-button-response","168","1075208","0.0-168.0","65adef062a188d698a4e6665","65adef062a188d698a4e6665_20240212","","","9","97"
"3038","0","html-button-response","169","1078753","0.0-169.0","65adef062a188d698a4e6665","65adef062a188d698a4e6665_20240212","","","9","96"
"2356","0","html-button-response","170","1081614","0.0-170.0","65adef062a188d698a4e6665","65adef062a188d698a4e6665_20240212","","","1","183"
"1554","0","html-button-response","171","1083679","0.0-171.0","65adef062a188d698a4e6665","65adef062a188d698a4e6665_20240212","","","1","95"
"1241","0","html-button-response","172","1085433","0.0-172.0","65adef062a188d698a4e6665","65adef062a188d698a4e6665_20240212","","","1","165"
"1704","0","html-button-response","173","1087639","0.0-173.0","65adef062a188d698a4e6665","65adef062a188d698a4e6665_20240212","","","1","45"
"1255","0","html-button-response","174","1089399","0.0-174.0","65adef062a188d698a4e6665","65adef062a188d698a4e6665_20240212","","","1","169"
"1066","0","html-button-response","175","1090980","0.0-175.0","65adef062a188d698a4e6665","65adef062a188d698a4e6665_20240212","","","1","167"
"2267","0","html-button-response","176","1093753","0.0-176.0","65adef062a188d698a4e6665","65adef062a188d698a4e6665_20240212","","","9","104"
"1568","0","html-button-response","177","1095825","0.0-177.0","65adef062a188d698a4e6665","65adef062a188d698a4e6665_20240212","","","9","98"
"1988","0","html-button-response","178","1098328","0.0-178.0","65adef062a188d698a4e6665","65adef062a188d698a4e6665_20240212","","","2","176"
"2124","0","html-button-response","179","1100966","0.0-179.0","65adef062a188d698a4e6665","65adef062a188d698a4e6665_20240212","","","9","101"
"1473","0","html-button-response","180","1102946","0.0-180.0","65adef062a188d698a4e6665","65adef062a188d698a4e6665_20240212","","","1","105"
"1740","0","html-button-response","181","1105223","0.0-181.0","65adef062a188d698a4e6665","65adef062a188d698a4e6665_20240212","","","1","48"
"1749","0","html-button-response","182","1107482","0.0-182.0","65adef062a188d698a4e6665","65adef062a188d698a4e6665_20240212","","","1","39"
"1581","0","html-button-response","183","1109568","0.0-183.0","65adef062a188d698a4e6665","65adef062a188d698a4e6665_20240212","","","1","51"
"3592","0","html-button-response","184","1113666","0.0-184.0","65adef062a188d698a4e6665","65adef062a188d698a4e6665_20240212","","","1","99"
"2024","0","html-button-response","185","1116203","0.0-185.0","65adef062a188d698a4e6665","65adef062a188d698a4e6665_20240212","","","3","172"
"2335","0","html-button-response","186","1119049","0.0-186.0","65adef062a188d698a4e6665","65adef062a188d698a4e6665_20240212","","","1","163"
"2816","0","html-button-response","187","1122374","0.0-187.0","65adef062a188d698a4e6665","65adef062a188d698a4e6665_20240212","","","4","158"
"1653","0","html-button-response","188","1124543","0.0-188.0","65adef062a188d698a4e6665","65adef062a188d698a4e6665_20240212","","","5","160"
"1910","0","html-button-response","189","1126962","0.0-189.0","65adef062a188d698a4e6665","65adef062a188d698a4e6665_20240212","","Thank you. You have reached the end. 
                       <br>Click the button below to reveal your compensation.
                        <br><br>","",""
