"rt","response","trial_type","trial_index","time_elapsed","internal_node_id","part_ID","ID_DATE","screen_id","understand_correct","stimulus","arousal","valence","img_id","tested_trial_idx"
"5658","0","html-button-response","0","5662","0.0-0.0","6550db1f1f5362bee121a572","6550db1f1f5362bee121a572_20240207","","","","","","",""
"5049","[object Object]","survey-html-form","1","11222","0.0-1.0","6550db1f1f5362bee121a572","6550db1f1f5362bee121a572_20240207","prolific_id_page","","","","","",""
"63264","0","html-button-response","2","74487","0.0-2.0","6550db1f1f5362bee121a572","6550db1f1f5362bee121a572_20240207","","","","","","",""
"89478","0","html-button-response","3","164479","0.0-3.0-0.0","6550db1f1f5362bee121a572","6550db1f1f5362bee121a572_20240207","","true","","","","",""
"9477","0","html-button-response","4","174458","0.0-4.0","6550db1f1f5362bee121a572","6550db1f1f5362bee121a572_20240207","","","
<div>
Great! You will now go on to rate the faces.
<br><br>
</div>
","","","",""
"13420","0","html-button-response","5","188392","0.0-5.0","6550db1f1f5362bee121a572","6550db1f1f5362bee121a572_20240207","","","","3","6","2096",""
"13310","0","html-button-response","6","202206","0.0-6.0","6550db1f1f5362bee121a572","6550db1f1f5362bee121a572_20240207","","","","6","3","226",""
"4177","0","html-button-response","7","206897","0.0-7.0","6550db1f1f5362bee121a572","6550db1f1f5362bee121a572_20240207","","","","2","2","1116",""
"5150","0","html-button-response","8","212548","0.0-8.0","6550db1f1f5362bee121a572","6550db1f1f5362bee121a572_20240207","","","","5","1","1025",""
"7730","0","html-button-response","9","220783","0.0-9.0","6550db1f1f5362bee121a572","6550db1f1f5362bee121a572_20240207","","","","1","4","1166",""
"6763","0","html-button-response","10","228053","0.0-10.0","6550db1f1f5362bee121a572","6550db1f1f5362bee121a572_20240207","","","","3","7","1357",""
"4843","0","html-button-response","11","233403","0.0-11.0","6550db1f1f5362bee121a572","6550db1f1f5362bee121a572_20240207","","","","5","5","1626",""
"10302","0","html-button-response","12","244214","0.0-12.0","6550db1f1f5362bee121a572","6550db1f1f5362bee121a572_20240207","","","","1","3","1959",""
"6353","0","html-button-response","13","251083","0.0-13.0","6550db1f1f5362bee121a572","6550db1f1f5362bee121a572_20240207","","","","4","4","661",""
"5365","0","html-button-response","14","256958","0.0-14.0","6550db1f1f5362bee121a572","6550db1f1f5362bee121a572_20240207","","","","5","2","143",""
"5949","0","html-button-response","15","263408","0.0-15.0","6550db1f1f5362bee121a572","6550db1f1f5362bee121a572_20240207","","","","5","7","1953",""
"4680","0","html-button-response","16","268594","0.0-16.0","6550db1f1f5362bee121a572","6550db1f1f5362bee121a572_20240207","","","","6","3","279",""
"3659","0","html-button-response","17","272756","0.0-17.0","6550db1f1f5362bee121a572","6550db1f1f5362bee121a572_20240207","","","","6","6","1200",""
"3280","0","html-button-response","18","276541","0.0-18.0","6550db1f1f5362bee121a572","6550db1f1f5362bee121a572_20240207","","","","3","3","1300",""
"5010","0","html-button-response","19","282057","0.0-19.0","6550db1f1f5362bee121a572","6550db1f1f5362bee121a572_20240207","","","","5","2","1274",""
"3739","0","html-button-response","20","286302","0.0-20.0","6550db1f1f5362bee121a572","6550db1f1f5362bee121a572_20240207","","","","5","5","1821",""
"4808","0","html-button-response","21","291613","0.0-21.0","6550db1f1f5362bee121a572","6550db1f1f5362bee121a572_20240207","","","","3","3","973",""
"8165","0","html-button-response","22","300280","0.0-22.0","6550db1f1f5362bee121a572","6550db1f1f5362bee121a572_20240207","","","","6","4","2102",""
"7304","0","html-button-response","23","308095","0.0-23.0","6550db1f1f5362bee121a572","6550db1f1f5362bee121a572_20240207","","","","9","3","33",""
"14172","0","html-button-response","24","322770","0.0-24.0","6550db1f1f5362bee121a572","6550db1f1f5362bee121a572_20240207","","","","3","6","1448",""
"5713","0","html-button-response","25","328984","0.0-25.0","6550db1f1f5362bee121a572","6550db1f1f5362bee121a572_20240207","","","","7","3","649",""
"3094","0","html-button-response","26","332589","0.0-26.0","6550db1f1f5362bee121a572","6550db1f1f5362bee121a572_20240207","","","","7","2","336",""
"5544","0","html-button-response","27","338643","0.0-27.0","6550db1f1f5362bee121a572","6550db1f1f5362bee121a572_20240207","","","","6","5","1990",""
"6874","0","html-button-response","28","346033","0.0-28.0","6550db1f1f5362bee121a572","6550db1f1f5362bee121a572_20240207","","","","7","7","2035",""
"3804","0","html-button-response","29","350353","0.0-29.0","6550db1f1f5362bee121a572","6550db1f1f5362bee121a572_20240207","","","","9","7","693",""
"2186","0","html-button-response","30","353044","0.0-30.0","6550db1f1f5362bee121a572","6550db1f1f5362bee121a572_20240207","","","","9","8","5",""
"7408","0","html-button-response","31","360964","0.0-31.0","6550db1f1f5362bee121a572","6550db1f1f5362bee121a572_20240207","","","","8","3","737",""
"5604","0","html-button-response","32","367071","0.0-32.0","6550db1f1f5362bee121a572","6550db1f1f5362bee121a572_20240207","","","","8","3","739",""
"8253","0","html-button-response","33","375826","0.0-33.0","6550db1f1f5362bee121a572","6550db1f1f5362bee121a572_20240207","","","","4","4","311",""
"5610","0","html-button-response","34","381939","0.0-34.0","6550db1f1f5362bee121a572","6550db1f1f5362bee121a572_20240207","","","","6","3","2131",""
"3867","0","html-button-response","35","386312","0.0-35.0","6550db1f1f5362bee121a572","6550db1f1f5362bee121a572_20240207","","","","5","5","1666",""
"7714","0","html-button-response","36","394541","0.0-36.0","6550db1f1f5362bee121a572","6550db1f1f5362bee121a572_20240207","","","","3","4","103",""
"14398","0","html-button-response","37","409445","0.0-37.0","6550db1f1f5362bee121a572","6550db1f1f5362bee121a572_20240207","","","","5","4","1602",""
"2431","0","html-button-response","38","412391","0.0-38.0","6550db1f1f5362bee121a572","6550db1f1f5362bee121a572_20240207","","","","6","5","993",""
"2475","0","html-button-response","39","415368","0.0-39.0","6550db1f1f5362bee121a572","6550db1f1f5362bee121a572_20240207","","","","7","7","690",""
"1958","0","html-button-response","40","417830","0.0-40.0","6550db1f1f5362bee121a572","6550db1f1f5362bee121a572_20240207","","","","4","3","1320",""
"1951","0","html-button-response","41","420286","0.0-41.0","6550db1f1f5362bee121a572","6550db1f1f5362bee121a572_20240207","","","","2","1","1230",""
"2227","0","html-button-response","42","423028","0.0-42.0","6550db1f1f5362bee121a572","6550db1f1f5362bee121a572_20240207","","","","1","1","182",""
"1878","0","html-button-response","43","425411","0.0-43.0","6550db1f1f5362bee121a572","6550db1f1f5362bee121a572_20240207","","","","5","6","446",""
"2111","0","html-button-response","44","428024","0.0-44.0","6550db1f1f5362bee121a572","6550db1f1f5362bee121a572_20240207","","","","7","7","1929",""
"3152","0","html-button-response","45","431692","0.0-45.0","6550db1f1f5362bee121a572","6550db1f1f5362bee121a572_20240207","","","","8","7","1418",""
"2425","0","html-button-response","46","434629","0.0-46.0","6550db1f1f5362bee121a572","6550db1f1f5362bee121a572_20240207","","","","5","7","1483",""
"2504","0","html-button-response","47","437647","0.0-47.0","6550db1f1f5362bee121a572","6550db1f1f5362bee121a572_20240207","","","","5","4","1310",""
"2004","0","html-button-response","48","440156","0.0-48.0","6550db1f1f5362bee121a572","6550db1f1f5362bee121a572_20240207","","","","3","3","1040",""
"2623","0","html-button-response","49","443284","0.0-49.0","6550db1f1f5362bee121a572","6550db1f1f5362bee121a572_20240207","","","","4","4","944",""
"3654","0","html-button-response","50","447452","0.0-50.0","6550db1f1f5362bee121a572","6550db1f1f5362bee121a572_20240207","","","","6","3","527",""
"4155","0","html-button-response","51","452108","0.0-51.0","6550db1f1f5362bee121a572","6550db1f1f5362bee121a572_20240207","","","","7","2","738",""
"3392","0","html-button-response","52","456007","0.0-52.0","6550db1f1f5362bee121a572","6550db1f1f5362bee121a572_20240207","","","","5","5","1291",""
"9481","0","html-button-response","53","465989","0.0-53.0","6550db1f1f5362bee121a572","6550db1f1f5362bee121a572_20240207","","","","5","5","1639",""
"2332","0","html-button-response","54","468793","0.0-54.0","6550db1f1f5362bee121a572","6550db1f1f5362bee121a572_20240207","","","","4","2","1312",""
"2685","0","html-button-response","55","471991","0.0-55.0","6550db1f1f5362bee121a572","6550db1f1f5362bee121a572_20240207","","","","7","2","1039",""
"5603","0","html-button-response","56","478103","0.0-56.0","6550db1f1f5362bee121a572","6550db1f1f5362bee121a572_20240207","","","","5","4","619",""
"5368","0","html-button-response","57","483975","0.0-57.0","6550db1f1f5362bee121a572","6550db1f1f5362bee121a572_20240207","","","","8","3","2038",""
"3213","0","html-button-response","58","487700","0.0-58.0","6550db1f1f5362bee121a572","6550db1f1f5362bee121a572_20240207","","","","8","8","1732",""
"5205","0","html-button-response","59","493408","0.0-59.0","6550db1f1f5362bee121a572","6550db1f1f5362bee121a572_20240207","","","","7","4","1568",""
"2717","0","html-button-response","60","496627","0.0-60.0","6550db1f1f5362bee121a572","6550db1f1f5362bee121a572_20240207","","","","7","3","1541",""
"3738","0","html-button-response","61","500873","0.0-61.0","6550db1f1f5362bee121a572","6550db1f1f5362bee121a572_20240207","","","","6","6","1408",""
"2344","0","html-button-response","62","503723","0.0-62.0","6550db1f1f5362bee121a572","6550db1f1f5362bee121a572_20240207","","","","7","6","1709",""
"3343","0","html-button-response","63","507568","0.0-63.0","6550db1f1f5362bee121a572","6550db1f1f5362bee121a572_20240207","","","","8","6","1394",""
"3667","0","html-button-response","64","511749","0.0-64.0","6550db1f1f5362bee121a572","6550db1f1f5362bee121a572_20240207","","","","7","3","1530",""
"3834","0","html-button-response","65","516095","0.0-65.0","6550db1f1f5362bee121a572","6550db1f1f5362bee121a572_20240207","","","","6","6","1914",""
"4099","0","html-button-response","66","520703","0.0-66.0","6550db1f1f5362bee121a572","6550db1f1f5362bee121a572_20240207","","","","7","3","603",""
"3033","0","html-button-response","67","524238","0.0-67.0","6550db1f1f5362bee121a572","6550db1f1f5362bee121a572_20240207","","","","9","1","1037",""
"2534","0","html-button-response","68","527211","0.0-68.0","6550db1f1f5362bee121a572","6550db1f1f5362bee121a572_20240207","","","","5","5","1979",""
"4480","0","html-button-response","69","532202","0.0-69.0","6550db1f1f5362bee121a572","6550db1f1f5362bee121a572_20240207","","","","5","6","1795",""
"2462","0","html-button-response","70","535176","0.0-70.0","6550db1f1f5362bee121a572","6550db1f1f5362bee121a572_20240207","","","","5","4","2169",""
"3977","0","html-button-response","71","539656","0.0-71.0","6550db1f1f5362bee121a572","6550db1f1f5362bee121a572_20240207","","","","5","4","972",""
"2324","0","html-button-response","72","542485","0.0-72.0","6550db1f1f5362bee121a572","6550db1f1f5362bee121a572_20240207","","","","7","3","42",""
"2041","0","html-button-response","73","545037","0.0-73.0","6550db1f1f5362bee121a572","6550db1f1f5362bee121a572_20240207","","","","6","4","320",""
"2134","0","html-button-response","74","547673","0.0-74.0","6550db1f1f5362bee121a572","6550db1f1f5362bee121a572_20240207","","","","7","7","1735",""
"3280","0","html-button-response","75","551470","0.0-75.0","6550db1f1f5362bee121a572","6550db1f1f5362bee121a572_20240207","","","","6","6","763",""
"4958","0","html-button-response","76","556939","0.0-76.0","6550db1f1f5362bee121a572","6550db1f1f5362bee121a572_20240207","","","","5","4","2113",""
"2478","0","html-button-response","77","559921","0.0-77.0","6550db1f1f5362bee121a572","6550db1f1f5362bee121a572_20240207","","","","5","2","2027",""
"3234","0","html-button-response","78","563661","0.0-78.0","6550db1f1f5362bee121a572","6550db1f1f5362bee121a572_20240207","","","","7","1","1233",""
"2368","0","html-button-response","79","566541","0.0-79.0","6550db1f1f5362bee121a572","6550db1f1f5362bee121a572_20240207","","","","8","1","1581",""
"4807","0","html-button-response","80","571853","0.0-80.0","6550db1f1f5362bee121a572","6550db1f1f5362bee121a572_20240207","","","","3","4","1149",""
"2851","0","html-button-response","81","575220","0.0-81.0","6550db1f1f5362bee121a572","6550db1f1f5362bee121a572_20240207","","","","7","7","1746",""
"2651","0","html-button-response","82","578383","0.0-82.0","6550db1f1f5362bee121a572","6550db1f1f5362bee121a572_20240207","","","","9","1","348",""
"3697","0","html-button-response","83","582583","0.0-83.0","6550db1f1f5362bee121a572","6550db1f1f5362bee121a572_20240207","","","","4","3","1663",""
"6132","0","html-button-response","84","589162","0.0-84.0","6550db1f1f5362bee121a572","6550db1f1f5362bee121a572_20240207","","","","8","5","733",""
"3975","0","html-button-response","85","593639","0.0-85.0","6550db1f1f5362bee121a572","6550db1f1f5362bee121a572_20240207","","","","9","4","80",""
"2487","0","html-button-response","86","596633","0.0-86.0","6550db1f1f5362bee121a572","6550db1f1f5362bee121a572_20240207","","","","7","4","549",""
"5930","0","html-button-response","87","603076","0.0-87.0","6550db1f1f5362bee121a572","6550db1f1f5362bee121a572_20240207","","","","5","7","1930",""
"4411","0","html-button-response","88","607990","0.0-88.0","6550db1f1f5362bee121a572","6550db1f1f5362bee121a572_20240207","","","","7","5","308",""
"3029","0","html-button-response","89","611524","0.0-89.0","6550db1f1f5362bee121a572","6550db1f1f5362bee121a572_20240207","","","","7","7","1710",""
"16990","0","html-button-response","90","629016","0.0-90.0","6550db1f1f5362bee121a572","6550db1f1f5362bee121a572_20240207","","","","6","5","757",""
"2478","0","html-button-response","91","631997","0.0-91.0","6550db1f1f5362bee121a572","6550db1f1f5362bee121a572_20240207","","","","6","6","1743",""
"2237","0","html-button-response","92","634738","0.0-92.0","6550db1f1f5362bee121a572","6550db1f1f5362bee121a572_20240207","","","","7","4","2086",""
"3483","0","html-button-response","93","638726","0.0-93.0","6550db1f1f5362bee121a572","6550db1f1f5362bee121a572_20240207","","","","3","3","899",""
"2538","0","html-button-response","94","641771","0.0-94.0","6550db1f1f5362bee121a572","6550db1f1f5362bee121a572_20240207","","","","9","1","1872",""
"2048","0","html-button-response","95","644333","0.0-95.0","6550db1f1f5362bee121a572","6550db1f1f5362bee121a572_20240207","","","","7","3","753",""
"2936","0","html-button-response","96","647710","0.0-96.0","6550db1f1f5362bee121a572","6550db1f1f5362bee121a572_20240207","","","","7","5","53",""
"2272","0","html-button-response","97","650489","0.0-97.0","6550db1f1f5362bee121a572","6550db1f1f5362bee121a572_20240207","","","","4","6","2123",""
"4246","0","html-button-response","98","655238","0.0-98.0","6550db1f1f5362bee121a572","6550db1f1f5362bee121a572_20240207","","","","7","4","132",""
"3161","0","html-button-response","99","658910","0.0-99.0","6550db1f1f5362bee121a572","6550db1f1f5362bee121a572_20240207","","","","3","3","611",""
"2062","0","html-button-response","100","661475","0.0-100.0","6550db1f1f5362bee121a572","6550db1f1f5362bee121a572_20240207","","","","4","5","1670",""
"3051","0","html-button-response","101","665037","0.0-101.0","6550db1f1f5362bee121a572","6550db1f1f5362bee121a572_20240207","","","","4","4","1324",""
"1953","0","html-button-response","102","667492","0.0-102.0","6550db1f1f5362bee121a572","6550db1f1f5362bee121a572_20240207","","","","4","4","1505",""
"2823","0","html-button-response","103","670825","0.0-103.0","6550db1f1f5362bee121a572","6550db1f1f5362bee121a572_20240207","","","","7","2","1219",""
"3824","0","html-button-response","104","675153","0.0-104.0","6550db1f1f5362bee121a572","6550db1f1f5362bee121a572_20240207","","","","7","7","1719",""
"4893","0","html-button-response","105","680550","0.0-105.0","6550db1f1f5362bee121a572","6550db1f1f5362bee121a572_20240207","","","","7","3","1203",""
"2678","0","html-button-response","106","683737","0.0-106.0","6550db1f1f5362bee121a572","6550db1f1f5362bee121a572_20240207","","","","5","4","1933",""
"3768","0","html-button-response","107","688012","0.0-107.0","6550db1f1f5362bee121a572","6550db1f1f5362bee121a572_20240207","","","","7","4","256",""
"5200","0","html-button-response","108","693715","0.0-108.0","6550db1f1f5362bee121a572","6550db1f1f5362bee121a572_20240207","","","","8","5","512",""
"4708","0","html-button-response","109","698926","0.0-109.0","6550db1f1f5362bee121a572","6550db1f1f5362bee121a572_20240207","","","","5","4","1347",""
"3332","0","html-button-response","110","702774","0.0-110.0","6550db1f1f5362bee121a572","6550db1f1f5362bee121a572_20240207","","","","7","4","268",""
"3333","0","html-button-response","111","706617","0.0-111.0","6550db1f1f5362bee121a572","6550db1f1f5362bee121a572_20240207","","","","7","6","1553",""
"3762","0","html-button-response","112","710827","0.0-112.0","6550db1f1f5362bee121a572","6550db1f1f5362bee121a572_20240207","","","","4","5","2148",""
"3483","0","html-button-response","113","714823","0.0-113.0","6550db1f1f5362bee121a572","6550db1f1f5362bee121a572_20240207","","","","8","8","1057",""
"3503","0","html-button-response","114","718830","0.0-114.0","6550db1f1f5362bee121a572","6550db1f1f5362bee121a572_20240207","","","","3","5","801",""
"7263","0","html-button-response","115","726608","0.0-115.0","6550db1f1f5362bee121a572","6550db1f1f5362bee121a572_20240207","","","","7","5","626",""
"4132","0","html-button-response","116","731252","0.0-116.0","6550db1f1f5362bee121a572","6550db1f1f5362bee121a572_20240207","","","","5","4","495",""
"6628","0","html-button-response","117","738391","0.0-117.0","6550db1f1f5362bee121a572","6550db1f1f5362bee121a572_20240207","","","","4","4","996",""
"3276","0","html-button-response","118","742177","0.0-118.0","6550db1f1f5362bee121a572","6550db1f1f5362bee121a572_20240207","","","","7","5","71",""
"6262","0","html-button-response","119","748948","0.0-119.0","6550db1f1f5362bee121a572","6550db1f1f5362bee121a572_20240207","","","","7","5","57",""
"2519","0","html-button-response","120","751979","0.0-120.0","6550db1f1f5362bee121a572","6550db1f1f5362bee121a572_20240207","","","","7","7","1926",""
"3371","0","html-button-response","121","755859","0.0-121.0","6550db1f1f5362bee121a572","6550db1f1f5362bee121a572_20240207","","","","4","3","1648",""
"3509","0","html-button-response","122","759879","0.0-122.0","6550db1f1f5362bee121a572","6550db1f1f5362bee121a572_20240207","","","","8","2","858",""
"4802","0","html-button-response","123","765198","0.0-123.0","6550db1f1f5362bee121a572","6550db1f1f5362bee121a572_20240207","","","","3","5","809",""
"3909","0","html-button-response","124","769580","0.0-124.0","6550db1f1f5362bee121a572","6550db1f1f5362bee121a572_20240207","","","","1","5","1162",""
"2507","0","html-button-response","125","772589","0.0-125.0","6550db1f1f5362bee121a572","6550db1f1f5362bee121a572_20240207","","","","8","7","1536",""
"6280","0","html-button-response","126","779379","0.0-126.0","6550db1f1f5362bee121a572","6550db1f1f5362bee121a572_20240207","","","","4","5","1294",""
"6442","0","html-button-response","127","786323","0.0-127.0","6550db1f1f5362bee121a572","6550db1f1f5362bee121a572_20240207","","","","3","2","921",""
"3987","0","html-button-response","128","790820","0.0-128.0","6550db1f1f5362bee121a572","6550db1f1f5362bee121a572_20240207","","","","1","5","1344",""
"5549","0","html-button-response","129","796883","0.0-129.0","6550db1f1f5362bee121a572","6550db1f1f5362bee121a572_20240207","","","","8","4","73",""
"2935","0","html-button-response","130","800332","0.0-130.0","6550db1f1f5362bee121a572","6550db1f1f5362bee121a572_20240207","","","","7","4","901",""
"3232","0","html-button-response","131","804077","0.0-131.0","6550db1f1f5362bee121a572","6550db1f1f5362bee121a572_20240207","","","","7","7","874",""
"4421","0","html-button-response","132","809000","0.0-132.0","6550db1f1f5362bee121a572","6550db1f1f5362bee121a572_20240207","","","","7","3","865",""
"3335","0","html-button-response","133","812837","0.0-133.0","6550db1f1f5362bee121a572","6550db1f1f5362bee121a572_20240207","","","","4","3","477",""
"3469","0","html-button-response","134","816819","0.0-134.0","6550db1f1f5362bee121a572","6550db1f1f5362bee121a572_20240207","","","","6","3","459",""
"6271","0","html-button-response","135","823599","0.0-135.0","6550db1f1f5362bee121a572","6550db1f1f5362bee121a572_20240207","","","","7","1","598",""
"6614","0","html-button-response","136","830723","0.0-136.0","6550db1f1f5362bee121a572","6550db1f1f5362bee121a572_20240207","","","","7","4","277",""
"3508","0","html-button-response","137","834741","0.0-137.0","6550db1f1f5362bee121a572","6550db1f1f5362bee121a572_20240207","","","","3","3","1973",""
"8417","0","html-button-response","138","843660","0.0-138.0","6550db1f1f5362bee121a572","6550db1f1f5362bee121a572_20240207","","","","8","6","161",""
"12513","0","html-button-response","139","856676","0.0-139.0","6550db1f1f5362bee121a572","6550db1f1f5362bee121a572_20240207","","","","7","4","408",""
"5534","0","html-button-response","140","862727","0.0-140.0","6550db1f1f5362bee121a572","6550db1f1f5362bee121a572_20240207","","","","8","8","2043",""
"9213","0","html-button-response","141","872451","0.0-141.0","6550db1f1f5362bee121a572","6550db1f1f5362bee121a572_20240207","","","","7","4","213",""
"17281","0","html-button-response","142","890240","0.0-142.0","6550db1f1f5362bee121a572","6550db1f1f5362bee121a572_20240207","","","","2","4","1098",""
"6418","0","html-button-response","143","897170","0.0-143.0","6550db1f1f5362bee121a572","6550db1f1f5362bee121a572_20240207","","","","9","5","69",""
"6329","0","html-button-response","144","904008","0.0-144.0","6550db1f1f5362bee121a572","6550db1f1f5362bee121a572_20240207","","","","9","7","951",""
"6840","0","html-button-response","145","911357","0.0-145.0","6550db1f1f5362bee121a572","6550db1f1f5362bee121a572_20240207","","","","7","2","568",""
"5394","0","html-button-response","146","917255","0.0-146.0","6550db1f1f5362bee121a572","6550db1f1f5362bee121a572_20240207","","","","8","6","977",""
"12770","0","html-button-response","147","930541","0.0-147.0","6550db1f1f5362bee121a572","6550db1f1f5362bee121a572_20240207","","","","6","3","212",""
"7296","0","html-button-response","148","938343","0.0-148.0","6550db1f1f5362bee121a572","6550db1f1f5362bee121a572_20240207","","","","8","3","236",""
"4186","0","html-button-response","149","943038","0.0-149.0","6550db1f1f5362bee121a572","6550db1f1f5362bee121a572_20240207","","","","9","1","1898",""
"4744","0","html-button-response","150","948287","0.0-150.0","6550db1f1f5362bee121a572","6550db1f1f5362bee121a572_20240207","","","","7","8","2108",""
"3965","0","html-button-response","151","952755","0.0-151.0","6550db1f1f5362bee121a572","6550db1f1f5362bee121a572_20240207","","","","7","4","85",""
"6725","0","html-button-response","152","959996","0.0-152.0","6550db1f1f5362bee121a572","6550db1f1f5362bee121a572_20240207","","","","3","3","334",""
"4909","0","html-button-response","153","965420","0.0-153.0","6550db1f1f5362bee121a572","6550db1f1f5362bee121a572_20240207","","","","4","6","1605",""
"10766","0","html-button-response","154","976693","0.0-154.0","6550db1f1f5362bee121a572","6550db1f1f5362bee121a572_20240207","","","","6","6","747",""
"5623","0","html-button-response","155","982825","0.0-155.0","6550db1f1f5362bee121a572","6550db1f1f5362bee121a572_20240207","","","","6","4","918",""
"4764","0","html-button-response","156","988099","0.0-156.0","6550db1f1f5362bee121a572","6550db1f1f5362bee121a572_20240207","","","","4","3","1117",""
"2969","0","html-button-response","157","991570","0.0-157.0","6550db1f1f5362bee121a572","6550db1f1f5362bee121a572_20240207","","","","2","2","896",""
"4109","0","html-button-response","158","996181","0.0-158.0","6550db1f1f5362bee121a572","6550db1f1f5362bee121a572_20240207","","","","2","3","832",""
"4081","0","html-button-response","159","1000772","0.0-159.0","6550db1f1f5362bee121a572","6550db1f1f5362bee121a572_20240207","","","","9","3","7",""
"3833","0","html-button-response","160","1005107","0.0-160.0","6550db1f1f5362bee121a572","6550db1f1f5362bee121a572_20240207","","","","2","3","622",""
"3771","0","html-button-response","161","1009393","0.0-161.0","6550db1f1f5362bee121a572","6550db1f1f5362bee121a572_20240207","","","","2","2","962",""
"7637","0","html-button-response","162","1017545","0.0-162.0","6550db1f1f5362bee121a572","6550db1f1f5362bee121a572_20240207","","","","2","5","1932",""
"5911","0","html-button-response","163","1023963","0.0-163.0","6550db1f1f5362bee121a572","6550db1f1f5362bee121a572_20240207","","","","9","2","456",""
"4655","0","html-button-response","164","1029120","0.0-164.0","6550db1f1f5362bee121a572","6550db1f1f5362bee121a572_20240207","","","","7","3","235",""
"12946","0","html-button-response","165","1042574","0.0-165.0","6550db1f1f5362bee121a572","6550db1f1f5362bee121a572_20240207","","","","8","4","313",""
"5351","0","html-button-response","166","1048433","0.0-166.0","6550db1f1f5362bee121a572","6550db1f1f5362bee121a572_20240207","","","","7","8","1202",""
"15011","0","html-button-response","167","1063946","0.0-167.0","6550db1f1f5362bee121a572","6550db1f1f5362bee121a572_20240207","","","","8","4","537",""
"4467","0","html-button-response","168","1068920","0.0-168.0","6550db1f1f5362bee121a572","6550db1f1f5362bee121a572_20240207","","","","3","7","1095",""
"2892","0","html-button-response","169","1072320","0.0-169.0","6550db1f1f5362bee121a572","6550db1f1f5362bee121a572_20240207","","","","8","2","377",""
"3134","0","html-button-response","170","1075963","0.0-170.0","6550db1f1f5362bee121a572","6550db1f1f5362bee121a572_20240207","","","","3","6","1275",""
"3008","0","html-button-response","171","1079480","0.0-171.0","6550db1f1f5362bee121a572","6550db1f1f5362bee121a572_20240207","","","","4","5","954",""
"6985","0","html-button-response","172","1086976","0.0-172.0","6550db1f1f5362bee121a572","6550db1f1f5362bee121a572_20240207","","","","3","4","1113",""
"5860","0","html-button-response","173","1093338","0.0-173.0","6550db1f1f5362bee121a572","6550db1f1f5362bee121a572_20240207","","","","7","2","1052",""
"3972","0","html-button-response","174","1097813","0.0-174.0","6550db1f1f5362bee121a572","6550db1f1f5362bee121a572_20240207","","","","3","2","945",""
"6308","0","html-button-response","175","1104636","0.0-175.0","6550db1f1f5362bee121a572","6550db1f1f5362bee121a572_20240207","","","","7","5","742",""
"5270","0","html-button-response","176","1110413","0.0-176.0","6550db1f1f5362bee121a572","6550db1f1f5362bee121a572_20240207","","","","7","3","571",""
"3326","0","html-button-response","177","1114248","0.0-177.0","6550db1f1f5362bee121a572","6550db1f1f5362bee121a572_20240207","","","","2","5","1504",""
"3573","0","html-button-response","178","1118325","0.0-178.0","6550db1f1f5362bee121a572","6550db1f1f5362bee121a572_20240207","","","","3","6","1435",""
"4506","0","html-button-response","179","1123343","0.0-179.0","6550db1f1f5362bee121a572","6550db1f1f5362bee121a572_20240207","","","","3","3","2183",""
"5954","0","html-button-response","180","1129802","0.0-180.0","6550db1f1f5362bee121a572","6550db1f1f5362bee121a572_20240207","","","","2","3","429",""
"5096","0","html-button-response","181","1135401","0.0-181.0","6550db1f1f5362bee121a572","6550db1f1f5362bee121a572_20240207","","","","2","4","1008",""
"4408","0","html-button-response","182","1140312","0.0-182.0","6550db1f1f5362bee121a572","6550db1f1f5362bee121a572_20240207","","","","8","5","586",""
"3835","0","html-button-response","183","1144652","0.0-183.0","6550db1f1f5362bee121a572","6550db1f1f5362bee121a572_20240207","","","","8","3","1712",""
"4410","0","html-button-response","184","1149571","0.0-184.0","6550db1f1f5362bee121a572","6550db1f1f5362bee121a572_20240207","","","","7","5","422",""
"3846","0","html-button-response","185","1153930","0.0-185.0","6550db1f1f5362bee121a572","6550db1f1f5362bee121a572_20240207","","","","3","6","2138",""
"3906","0","html-button-response","186","1158338","0.0-186.0","6550db1f1f5362bee121a572","6550db1f1f5362bee121a572_20240207","","","","5","5","1810",""
"4312","0","html-button-response","187","1163159","0.0-187.0","6550db1f1f5362bee121a572","6550db1f1f5362bee121a572_20240207","","","","2","3","1609",""
"3683","0","html-button-response","188","1167355","0.0-188.0","6550db1f1f5362bee121a572","6550db1f1f5362bee121a572_20240207","","","","7","3","1377",""
"4945","0","html-button-response","189","1172810","0.0-189.0","6550db1f1f5362bee121a572","6550db1f1f5362bee121a572_20240207","","","","3","4","1594",""
"21106","0","html-button-response","190","1194428","0.0-190.0","6550db1f1f5362bee121a572","6550db1f1f5362bee121a572_20240207","","","","8","6","1069",""
"3549","0","html-button-response","191","1198488","0.0-191.0","6550db1f1f5362bee121a572","6550db1f1f5362bee121a572_20240207","","","","3","6","1460",""
"7929","0","html-button-response","192","1206921","0.0-192.0","6550db1f1f5362bee121a572","6550db1f1f5362bee121a572_20240207","","","","3","3","1621",""
"40502","0","html-button-response","193","1247936","0.0-193.0","6550db1f1f5362bee121a572","6550db1f1f5362bee121a572_20240207","","","","7","2","208",""
"3927","0","html-button-response","194","1252370","0.0-194.0","6550db1f1f5362bee121a572","6550db1f1f5362bee121a572_20240207","","","","7","7","1384",""
"4407","0","html-button-response","195","1257287","0.0-195.0","6550db1f1f5362bee121a572","6550db1f1f5362bee121a572_20240207","","","","8","6","1083",""
"4408","0","html-button-response","196","1262197","0.0-196.0","6550db1f1f5362bee121a572","6550db1f1f5362bee121a572_20240207","","","","7","4","1495",""
"4261","0","html-button-response","197","1266964","0.0-197.0","6550db1f1f5362bee121a572","6550db1f1f5362bee121a572_20240207","","","","7","5","155",""
"4406","0","html-button-response","198","1271871","0.0-198.0","6550db1f1f5362bee121a572","6550db1f1f5362bee121a572_20240207","","","","8","3","207",""
"3307","0","html-button-response","199","1275684","0.0-199.0","6550db1f1f5362bee121a572","6550db1f1f5362bee121a572_20240207","","","","9","5","79",""
"6198","0","html-button-response","200","1282390","0.0-200.0","6550db1f1f5362bee121a572","6550db1f1f5362bee121a572_20240207","","","","4","4","1126",""
"4199","0","html-button-response","201","1287094","0.0-201.0","6550db1f1f5362bee121a572","6550db1f1f5362bee121a572_20240207","","","","7","4","1711",""
"11958","0","html-button-response","202","1299561","0.0-202.0","6550db1f1f5362bee121a572","6550db1f1f5362bee121a572_20240207","","","","9","4","50",""
"5070","0","html-button-response","203","1305147","0.0-203.0","6550db1f1f5362bee121a572","6550db1f1f5362bee121a572_20240207","","","","1","4","490",""
"3764","0","html-button-response","204","1309413","0.0-204.0","6550db1f1f5362bee121a572","6550db1f1f5362bee121a572_20240207","","","","9","2","1360",""
"5050","0","html-button-response","205","1314976","0.0-205.0","6550db1f1f5362bee121a572","6550db1f1f5362bee121a572_20240207","","","","1","4","952",""
"5517","0","html-button-response","206","1321006","0.0-206.0","6550db1f1f5362bee121a572","6550db1f1f5362bee121a572_20240207","","","","9","2","177",""
"2525","0","html-button-response","207","1324043","0.0-207.0","6550db1f1f5362bee121a572","6550db1f1f5362bee121a572_20240207","","","","5","5","1993",""
"3487","0","html-button-response","208","1328037","0.0-208.0","6550db1f1f5362bee121a572","6550db1f1f5362bee121a572_20240207","","","","9","1","528",""
"4264","0","html-button-response","209","1332813","0.0-209.0","6550db1f1f5362bee121a572","6550db1f1f5362bee121a572_20240207","","","","8","8","1031",""
"4821","0","html-button-response","210","1338135","0.0-210.0","6550db1f1f5362bee121a572","6550db1f1f5362bee121a572_20240207","","","","8","7","1237",""
"5444","0","html-button-response","211","1344089","0.0-211.0","6550db1f1f5362bee121a572","6550db1f1f5362bee121a572_20240207","","","","2","3","1438",""
"8636","0","html-button-response","212","1353233","0.0-212.0","6550db1f1f5362bee121a572","6550db1f1f5362bee121a572_20240207","","","","3","4","1322",""
"2292","0","html-button-response","213","1356029","0.0-213.0","6550db1f1f5362bee121a572","6550db1f1f5362bee121a572_20240207","","","","3","4","1987",""
"4616","0","html-button-response","214","1361156","0.0-214.0","6550db1f1f5362bee121a572","6550db1f1f5362bee121a572_20240207","","","","8","2","1062",""
"6827","0","html-button-response","215","1368496","0.0-215.0","6550db1f1f5362bee121a572","6550db1f1f5362bee121a572_20240207","","","","8","3","601",""
"4501","0","html-button-response","216","1373511","0.0-216.0","6550db1f1f5362bee121a572","6550db1f1f5362bee121a572_20240207","","","","2","3","805",""
"6769","0","html-button-response","217","1380785","0.0-217.0","6550db1f1f5362bee121a572","6550db1f1f5362bee121a572_20240207","","","","8","2","559",""
"8050","0","html-button-response","218","1389345","0.0-218.0","6550db1f1f5362bee121a572","6550db1f1f5362bee121a572_20240207","","","","2","4","1686",""
"7777","0","html-button-response","219","1397628","0.0-219.0","6550db1f1f5362bee121a572","6550db1f1f5362bee121a572_20240207","","","","8","3","136",""
"10084","0","html-button-response","220","1408215","0.0-220.0","6550db1f1f5362bee121a572","6550db1f1f5362bee121a572_20240207","","","","3","3","974",""
"6274","0","html-button-response","221","1414991","0.0-221.0","6550db1f1f5362bee121a572","6550db1f1f5362bee121a572_20240207","","","","6","3","322",""
"7847","0","html-button-response","222","1423343","0.0-222.0","6550db1f1f5362bee121a572","6550db1f1f5362bee121a572_20240207","","","","3","4","1607",""
"6192","0","html-button-response","223","1430047","0.0-223.0","6550db1f1f5362bee121a572","6550db1f1f5362bee121a572_20240207","","","","3","6","1106",""
"7649","0","html-button-response","224","1438209","0.0-224.0","6550db1f1f5362bee121a572","6550db1f1f5362bee121a572_20240207","","","","6","3","1907",""
"2182","0","html-button-response","225","1440902","0.0-225.0","6550db1f1f5362bee121a572","6550db1f1f5362bee121a572_20240207","","","Thank you. You have reached the end. 
                       <br>Click the button below to reveal your compensation.
                        <br><br>","","","","2096,226,1116,1025,1166,1357,1626,1959,661,143,1953,279,1200,1300,1274,1821,973,2102,33,1448,649,336,1990,2035,693,5,737,739,311,2131,1666,103,1602,993,690,1320,1230,182,446,1929,1418,1483,1310,1040,944,527,738,1291,1639,1312,1039,619,2038,1732,1568,1541,1408,1709,1394,1530,1914,603,1037,1979,1795,2169,972,42,320,1735,763,2113,2027,1233,1581,1149,1746,348,1663,733,80,549,1930,308,1710,757,1743,2086,899,1872,753,53,2123,132,611,1670,1324,1505,1219,1719,1203,1933,256,512,1347,268,1553,2148,1057,801,626,495,996,71,57,1926,1648,858,809,1162,1536,1294,921,1344,73,901,874,865,477,459,598,277,1973,161,408,2043,213,1098,69,951,568,977,212,236,1898,2108,85,334,1605,747,918,1117,896,832,7,622,962,1932,456,235,313,1202,537,1095,377,1275,954,1113,1052,945,742,571,1504,1435,2183,429,1008,586,1712,422,2138,1810,1609,1377,1594,1069,1460,1621,208,1384,1083,1495,155,207,79,1126,1711,50,490,1360,952,177,1993,528,1031,1237,1438,1322,1987,1062,601,805,559,1686,136,974,322,1607,1106,1907"
