"rt","response","trial_type","trial_index","time_elapsed","internal_node_id","part_ID","ID_DATE","screen_id","understand_correct","stimulus","arousal","valence","img_id","tested_trial_idx"
"1486415","0","html-button-response","0","1486417","0.0-0.0","5f6067975552dc000aa21f2a","5f6067975552dc000aa21f2a_20240207","","","","","","",""
"7099","[object Object]","survey-html-form","1","1494023","0.0-1.0","5f6067975552dc000aa21f2a","5f6067975552dc000aa21f2a_20240207","prolific_id_page","","","","","",""
"8847","0","html-button-response","2","1502873","0.0-2.0","5f6067975552dc000aa21f2a","5f6067975552dc000aa21f2a_20240207","","","","","","",""
"29553","0","html-button-response","3","1532932","0.0-3.0-0.0","5f6067975552dc000aa21f2a","5f6067975552dc000aa21f2a_20240207","","false","","","","",""
"8613","0","html-button-response","4","1546944","0.0-3.1-0.1","5f6067975552dc000aa21f2a","5f6067975552dc000aa21f2a_20240207","","false","","","","",""
"79971","0","html-button-response","5","1634444","0.0-3.2-0.2","5f6067975552dc000aa21f2a","5f6067975552dc000aa21f2a_20240207","","false","","","","",""
"232197","0","html-button-response","6","1869032","0.0-3.3-0.3","5f6067975552dc000aa21f2a","5f6067975552dc000aa21f2a_20240207","","true","","","","",""
"1214","0","html-button-response","7","1870748","0.0-4.0","5f6067975552dc000aa21f2a","5f6067975552dc000aa21f2a_20240207","","","
<div>
Great! You will now go on to rate the faces.
<br><br>
</div>
","","","",""
"9263","0","html-button-response","8","1880516","0.0-5.0","5f6067975552dc000aa21f2a","5f6067975552dc000aa21f2a_20240207","","","","5","8","617",""
"20260","0","html-button-response","9","1901280","0.0-6.0","5f6067975552dc000aa21f2a","5f6067975552dc000aa21f2a_20240207","","","","1","3","1916",""
"3840","0","html-button-response","10","1905628","0.0-7.0","5f6067975552dc000aa21f2a","5f6067975552dc000aa21f2a_20240207","","","","1","7","2002",""
"3710","0","html-button-response","11","1909844","0.0-8.0","5f6067975552dc000aa21f2a","5f6067975552dc000aa21f2a_20240207","","","","2","7","632",""
"102143","0","html-button-response","12","2012496","0.0-9.0","5f6067975552dc000aa21f2a","5f6067975552dc000aa21f2a_20240207","","","","5","1","1240",""
"5281","0","html-button-response","13","2018285","0.0-10.0","5f6067975552dc000aa21f2a","5f6067975552dc000aa21f2a_20240207","","","","6","7","895",""
"4189","0","html-button-response","14","2022980","0.0-11.0","5f6067975552dc000aa21f2a","5f6067975552dc000aa21f2a_20240207","","","","4","2","1778",""
"5405","0","html-button-response","15","2028890","0.0-12.0","5f6067975552dc000aa21f2a","5f6067975552dc000aa21f2a_20240207","","","","2","7","930",""
"12812","0","html-button-response","16","2042210","0.0-13.0","5f6067975552dc000aa21f2a","5f6067975552dc000aa21f2a_20240207","","","","7","9","1212",""
"13339","0","html-button-response","17","2056057","0.0-14.0","5f6067975552dc000aa21f2a","5f6067975552dc000aa21f2a_20240207","","","","9","9","27",""
"3046","0","html-button-response","18","2059610","0.0-15.0","5f6067975552dc000aa21f2a","5f6067975552dc000aa21f2a_20240207","","","","7","8","576",""
"7279","0","html-button-response","19","2067398","0.0-16.0","5f6067975552dc000aa21f2a","5f6067975552dc000aa21f2a_20240207","","","","4","8","1976",""
"5358","0","html-button-response","20","2073264","0.0-17.0","5f6067975552dc000aa21f2a","5f6067975552dc000aa21f2a_20240207","","","","5","8","340",""
"3938","0","html-button-response","21","2077706","0.0-18.0","5f6067975552dc000aa21f2a","5f6067975552dc000aa21f2a_20240207","","","","5","6","529",""
"7169","0","html-button-response","22","2085382","0.0-19.0","5f6067975552dc000aa21f2a","5f6067975552dc000aa21f2a_20240207","","","","5","7","1133",""
"3906","0","html-button-response","23","2089792","0.0-20.0","5f6067975552dc000aa21f2a","5f6067975552dc000aa21f2a_20240207","","","","5","7","29",""
"1296","0","html-button-response","24","2091592","0.0-21.0","5f6067975552dc000aa21f2a","5f6067975552dc000aa21f2a_20240207","","","","5","2","292",""
"1512","0","html-button-response","25","2093607","0.0-22.0","5f6067975552dc000aa21f2a","5f6067975552dc000aa21f2a_20240207","","","","3","6","1232",""
"1576","0","html-button-response","26","2095690","0.0-23.0","5f6067975552dc000aa21f2a","5f6067975552dc000aa21f2a_20240207","","","","5","4","1050",""
"1665","0","html-button-response","27","2097862","0.0-24.0","5f6067975552dc000aa21f2a","5f6067975552dc000aa21f2a_20240207","","","","5","7","1541",""
"1643","0","html-button-response","28","2100009","0.0-25.0","5f6067975552dc000aa21f2a","5f6067975552dc000aa21f2a_20240207","","","","7","7","868",""
"1491","0","html-button-response","29","2102002","0.0-26.0","5f6067975552dc000aa21f2a","5f6067975552dc000aa21f2a_20240207","","","","7","2","1140",""
"1167","0","html-button-response","30","2103671","0.0-27.0","5f6067975552dc000aa21f2a","5f6067975552dc000aa21f2a_20240207","","","","4","8","770",""
"31759","0","html-button-response","31","2135935","0.0-28.0","5f6067975552dc000aa21f2a","5f6067975552dc000aa21f2a_20240207","","","","5","8","1220",""
"1882","0","html-button-response","32","2138321","0.0-29.0","5f6067975552dc000aa21f2a","5f6067975552dc000aa21f2a_20240207","","","","4","4","592",""
"1550","0","html-button-response","33","2140375","0.0-30.0","5f6067975552dc000aa21f2a","5f6067975552dc000aa21f2a_20240207","","","","3","7","615",""
"1147","0","html-button-response","34","2142026","0.0-31.0","5f6067975552dc000aa21f2a","5f6067975552dc000aa21f2a_20240207","","","","5","7","1289",""
"1268","0","html-button-response","35","2143796","0.0-32.0","5f6067975552dc000aa21f2a","5f6067975552dc000aa21f2a_20240207","","","","8","8","1593",""
"1251","0","html-button-response","36","2145549","0.0-33.0","5f6067975552dc000aa21f2a","5f6067975552dc000aa21f2a_20240207","","","","3","6","1189",""
"1314","0","html-button-response","37","2147368","0.0-34.0","5f6067975552dc000aa21f2a","5f6067975552dc000aa21f2a_20240207","","","","3","3","2021",""
"1308","0","html-button-response","38","2149181","0.0-35.0","5f6067975552dc000aa21f2a","5f6067975552dc000aa21f2a_20240207","","","","5","3","801",""
"1987","0","html-button-response","39","2151671","0.0-36.0","5f6067975552dc000aa21f2a","5f6067975552dc000aa21f2a_20240207","","","","4","8","1981",""
"1369","0","html-button-response","40","2153547","0.0-37.0","5f6067975552dc000aa21f2a","5f6067975552dc000aa21f2a_20240207","","","","5","7","594",""
"1488","0","html-button-response","41","2155542","0.0-38.0","5f6067975552dc000aa21f2a","5f6067975552dc000aa21f2a_20240207","","","","7","8","48",""
"2378","0","html-button-response","42","2158424","0.0-39.0","5f6067975552dc000aa21f2a","5f6067975552dc000aa21f2a_20240207","","","","5","2","1551",""
"1323","0","html-button-response","43","2160252","0.0-40.0","5f6067975552dc000aa21f2a","5f6067975552dc000aa21f2a_20240207","","","","3","7","1518",""
"7220","0","html-button-response","44","2167978","0.0-41.0","5f6067975552dc000aa21f2a","5f6067975552dc000aa21f2a_20240207","","","","5","8","1393",""
"10411","0","html-button-response","45","2178898","0.0-42.0","5f6067975552dc000aa21f2a","5f6067975552dc000aa21f2a_20240207","","","","5","8","1547",""
"1507","0","html-button-response","46","2180909","0.0-43.0","5f6067975552dc000aa21f2a","5f6067975552dc000aa21f2a_20240207","","","","5","5","565",""
"1205","0","html-button-response","47","2182619","0.0-44.0","5f6067975552dc000aa21f2a","5f6067975552dc000aa21f2a_20240207","","","","4","7","258",""
"1595","0","html-button-response","48","2184719","0.0-45.0","5f6067975552dc000aa21f2a","5f6067975552dc000aa21f2a_20240207","","","","3","8","1297",""
"1353","0","html-button-response","49","2186575","0.0-46.0","5f6067975552dc000aa21f2a","5f6067975552dc000aa21f2a_20240207","","","","5","6","1024",""
"1416","0","html-button-response","50","2188495","0.0-47.0","5f6067975552dc000aa21f2a","5f6067975552dc000aa21f2a_20240207","","","","4","3","1340",""
"1808","0","html-button-response","51","2190809","0.0-48.0","5f6067975552dc000aa21f2a","5f6067975552dc000aa21f2a_20240207","","","","5","5","1420",""
"1215","0","html-button-response","52","2192531","0.0-49.0","5f6067975552dc000aa21f2a","5f6067975552dc000aa21f2a_20240207","","","","3","7","652",""
"1163","0","html-button-response","53","2194198","0.0-50.0","5f6067975552dc000aa21f2a","5f6067975552dc000aa21f2a_20240207","","","","5","7","2192",""
"2076","0","html-button-response","54","2196778","0.0-51.0","5f6067975552dc000aa21f2a","5f6067975552dc000aa21f2a_20240207","","","","2","6","2148",""
"1823","0","html-button-response","55","2199103","0.0-52.0","5f6067975552dc000aa21f2a","5f6067975552dc000aa21f2a_20240207","","","","3","3","1717",""
"1399","0","html-button-response","56","2201007","0.0-53.0","5f6067975552dc000aa21f2a","5f6067975552dc000aa21f2a_20240207","","","","7","7","221",""
"1370","0","html-button-response","57","2202883","0.0-54.0","5f6067975552dc000aa21f2a","5f6067975552dc000aa21f2a_20240207","","","","3","6","165",""
"85297","0","html-button-response","58","2288687","0.0-55.0","5f6067975552dc000aa21f2a","5f6067975552dc000aa21f2a_20240207","","","","5","6","870",""
"424228","0","html-button-response","59","2713422","0.0-56.0","5f6067975552dc000aa21f2a","5f6067975552dc000aa21f2a_20240207","","","","7","7","173",""
"1266","0","html-button-response","60","2715193","0.0-57.0","5f6067975552dc000aa21f2a","5f6067975552dc000aa21f2a_20240207","","","","5","7","436",""
"1067","0","html-button-response","61","2716767","0.0-58.0","5f6067975552dc000aa21f2a","5f6067975552dc000aa21f2a_20240207","","","","5","6","1538",""
"1294","0","html-button-response","62","2718567","0.0-59.0","5f6067975552dc000aa21f2a","5f6067975552dc000aa21f2a_20240207","","","","5","2","10",""
"1159","0","html-button-response","63","2720232","0.0-60.0","5f6067975552dc000aa21f2a","5f6067975552dc000aa21f2a_20240207","","","","5","7","752",""
"1146","0","html-button-response","64","2721884","0.0-61.0","5f6067975552dc000aa21f2a","5f6067975552dc000aa21f2a_20240207","","","","4","7","1523",""
"1273","0","html-button-response","65","2723668","0.0-62.0","5f6067975552dc000aa21f2a","5f6067975552dc000aa21f2a_20240207","","","","3","3","856",""
"1141","0","html-button-response","66","2725314","0.0-63.0","5f6067975552dc000aa21f2a","5f6067975552dc000aa21f2a_20240207","","","","4","7","943",""
"1084","0","html-button-response","67","2726907","0.0-64.0","5f6067975552dc000aa21f2a","5f6067975552dc000aa21f2a_20240207","","","","7","7","1669",""
"1055","0","html-button-response","68","2728468","0.0-65.0","5f6067975552dc000aa21f2a","5f6067975552dc000aa21f2a_20240207","","","","5","3","668",""
"1049","0","html-button-response","69","2730027","0.0-66.0","5f6067975552dc000aa21f2a","5f6067975552dc000aa21f2a_20240207","","","","2","6","1385",""
"765","0","html-button-response","70","2731301","0.0-67.0","5f6067975552dc000aa21f2a","5f6067975552dc000aa21f2a_20240207","","","","5","7","467",""
"1760","0","html-button-response","71","2733568","0.0-68.0","5f6067975552dc000aa21f2a","5f6067975552dc000aa21f2a_20240207","","","","1","6","1802",""
"1925","0","html-button-response","72","2736000","0.0-69.0","5f6067975552dc000aa21f2a","5f6067975552dc000aa21f2a_20240207","","","","5","7","1762",""
"1818","0","html-button-response","73","2738324","0.0-70.0","5f6067975552dc000aa21f2a","5f6067975552dc000aa21f2a_20240207","","","","3","6","641",""
"889","0","html-button-response","74","2739716","0.0-71.0","5f6067975552dc000aa21f2a","5f6067975552dc000aa21f2a_20240207","","","","6","7","1115",""
"1549","0","html-button-response","75","2741773","0.0-72.0","5f6067975552dc000aa21f2a","5f6067975552dc000aa21f2a_20240207","","","","3","7","1606",""
"996","0","html-button-response","76","2743273","0.0-73.0","5f6067975552dc000aa21f2a","5f6067975552dc000aa21f2a_20240207","","","","6","6","1768",""
"1087","0","html-button-response","77","2744865","0.0-74.0","5f6067975552dc000aa21f2a","5f6067975552dc000aa21f2a_20240207","","","","2","7","74",""
"960","0","html-button-response","78","2746333","0.0-75.0","5f6067975552dc000aa21f2a","5f6067975552dc000aa21f2a_20240207","","","","4","8","624",""
"934","0","html-button-response","79","2747772","0.0-76.0","5f6067975552dc000aa21f2a","5f6067975552dc000aa21f2a_20240207","","","","5","7","238",""
"1085","0","html-button-response","80","2749363","0.0-77.0","5f6067975552dc000aa21f2a","5f6067975552dc000aa21f2a_20240207","","","","4","6","408",""
"1326","0","html-button-response","81","2751193","0.0-78.0","5f6067975552dc000aa21f2a","5f6067975552dc000aa21f2a_20240207","","","","6","8","1325",""
"1147","0","html-button-response","82","2752844","0.0-79.0","5f6067975552dc000aa21f2a","5f6067975552dc000aa21f2a_20240207","","","","5","5","343",""
"1387","0","html-button-response","83","2754735","0.0-80.0","5f6067975552dc000aa21f2a","5f6067975552dc000aa21f2a_20240207","","","","5","7","403",""
"1305","0","html-button-response","84","2756549","0.0-81.0","5f6067975552dc000aa21f2a","5f6067975552dc000aa21f2a_20240207","","","","4","4","604",""
"953","0","html-button-response","85","2758004","0.0-82.0","5f6067975552dc000aa21f2a","5f6067975552dc000aa21f2a_20240207","","","","8","7","1044",""
"1038","0","html-button-response","86","2759552","0.0-83.0","5f6067975552dc000aa21f2a","5f6067975552dc000aa21f2a_20240207","","","","4","6","2103",""
"1848","0","html-button-response","87","2761904","0.0-84.0","5f6067975552dc000aa21f2a","5f6067975552dc000aa21f2a_20240207","","","","4","7","51",""
"17916","0","html-button-response","88","2780324","0.0-85.0","5f6067975552dc000aa21f2a","5f6067975552dc000aa21f2a_20240207","","","","6","5","1794",""
"1675","0","html-button-response","89","2782502","0.0-86.0","5f6067975552dc000aa21f2a","5f6067975552dc000aa21f2a_20240207","","","","4","7","1572",""
"1279","0","html-button-response","90","2784284","0.0-87.0","5f6067975552dc000aa21f2a","5f6067975552dc000aa21f2a_20240207","","","","4","5","163",""
"1473","0","html-button-response","91","2786262","0.0-88.0","5f6067975552dc000aa21f2a","5f6067975552dc000aa21f2a_20240207","","","","4","2","284",""
"1223","0","html-button-response","92","2787991","0.0-89.0","5f6067975552dc000aa21f2a","5f6067975552dc000aa21f2a_20240207","","","","5","7","640",""
"2238","0","html-button-response","93","2790737","0.0-90.0","5f6067975552dc000aa21f2a","5f6067975552dc000aa21f2a_20240207","","","","5","3","229",""
"872","0","html-button-response","94","2792115","0.0-91.0","5f6067975552dc000aa21f2a","5f6067975552dc000aa21f2a_20240207","","","","4","7","88",""
"817","0","html-button-response","95","2793439","0.0-92.0","5f6067975552dc000aa21f2a","5f6067975552dc000aa21f2a_20240207","","","","3","6","517",""
"1066","0","html-button-response","96","2795011","0.0-93.0","5f6067975552dc000aa21f2a","5f6067975552dc000aa21f2a_20240207","","","","3","3","735",""
"1325","0","html-button-response","97","2796840","0.0-94.0","5f6067975552dc000aa21f2a","5f6067975552dc000aa21f2a_20240207","","","","3","8","739",""
"1071","0","html-button-response","98","2798414","0.0-95.0","5f6067975552dc000aa21f2a","5f6067975552dc000aa21f2a_20240207","","","","4","8","275",""
"1596","0","html-button-response","99","2800516","0.0-96.0","5f6067975552dc000aa21f2a","5f6067975552dc000aa21f2a_20240207","","","","5","3","2008",""
"994","0","html-button-response","100","2802014","0.0-97.0","5f6067975552dc000aa21f2a","5f6067975552dc000aa21f2a_20240207","","","","4","7","373",""
"1189","0","html-button-response","101","2803711","0.0-98.0","5f6067975552dc000aa21f2a","5f6067975552dc000aa21f2a_20240207","","","","3","7","610",""
"1021","0","html-button-response","102","2805240","0.0-99.0","5f6067975552dc000aa21f2a","5f6067975552dc000aa21f2a_20240207","","","","7","7","961",""
"1359","0","html-button-response","103","2807102","0.0-100.0","5f6067975552dc000aa21f2a","5f6067975552dc000aa21f2a_20240207","","","","3","7","1697",""
"1445","0","html-button-response","104","2809051","0.0-101.0","5f6067975552dc000aa21f2a","5f6067975552dc000aa21f2a_20240207","","","","3","7","1110",""
"915","0","html-button-response","105","2810475","0.0-102.0","5f6067975552dc000aa21f2a","5f6067975552dc000aa21f2a_20240207","","","","4","7","572",""
"1387","0","html-button-response","106","2812366","0.0-103.0","5f6067975552dc000aa21f2a","5f6067975552dc000aa21f2a_20240207","","","","4","8","1103",""
"981","0","html-button-response","107","2813852","0.0-104.0","5f6067975552dc000aa21f2a","5f6067975552dc000aa21f2a_20240207","","","","3","9","1271",""
"1141","0","html-button-response","108","2815500","0.0-105.0","5f6067975552dc000aa21f2a","5f6067975552dc000aa21f2a_20240207","","","","3","7","1327",""
"1073","0","html-button-response","109","2817077","0.0-106.0","5f6067975552dc000aa21f2a","5f6067975552dc000aa21f2a_20240207","","","","5","7","1559",""
"1790","0","html-button-response","110","2819371","0.0-107.0","5f6067975552dc000aa21f2a","5f6067975552dc000aa21f2a_20240207","","","","7","6","93",""
"1295","0","html-button-response","111","2821169","0.0-108.0","5f6067975552dc000aa21f2a","5f6067975552dc000aa21f2a_20240207","","","","4","7","223",""
"1118","0","html-button-response","112","2822793","0.0-109.0","5f6067975552dc000aa21f2a","5f6067975552dc000aa21f2a_20240207","","","","4","6","58",""
"1189","0","html-button-response","113","2824487","0.0-110.0","5f6067975552dc000aa21f2a","5f6067975552dc000aa21f2a_20240207","","","","4","7","500",""
"1311","0","html-button-response","114","2826303","0.0-111.0","5f6067975552dc000aa21f2a","5f6067975552dc000aa21f2a_20240207","","","","6","6","1025",""
"1876","0","html-button-response","115","2828687","0.0-112.0","5f6067975552dc000aa21f2a","5f6067975552dc000aa21f2a_20240207","","","","8","9","1998",""
"1024","0","html-button-response","116","2830217","0.0-113.0","5f6067975552dc000aa21f2a","5f6067975552dc000aa21f2a_20240207","","","","6","5","1343",""
"1069","0","html-button-response","117","2831792","0.0-114.0","5f6067975552dc000aa21f2a","5f6067975552dc000aa21f2a_20240207","","","","6","7","271",""
"1411","0","html-button-response","118","2833710","0.0-115.0","5f6067975552dc000aa21f2a","5f6067975552dc000aa21f2a_20240207","","","","3","7","1031",""
"93434","0","html-button-response","119","2927648","0.0-116.0","5f6067975552dc000aa21f2a","5f6067975552dc000aa21f2a_20240207","","","","3","7","1651",""
"52041","0","html-button-response","120","2980198","0.0-117.0","5f6067975552dc000aa21f2a","5f6067975552dc000aa21f2a_20240207","","","","3","6","1394",""
"709","0","html-button-response","121","2981412","0.0-118.0","5f6067975552dc000aa21f2a","5f6067975552dc000aa21f2a_20240207","","","","6","7","476",""
"1111","0","html-button-response","122","2983029","0.0-119.0","5f6067975552dc000aa21f2a","5f6067975552dc000aa21f2a_20240207","","","","4","7","754",""
"8672","0","html-button-response","123","2992208","0.0-120.0","5f6067975552dc000aa21f2a","5f6067975552dc000aa21f2a_20240207","","","","4","7","858",""
"1238","0","html-button-response","124","2993950","0.0-121.0","5f6067975552dc000aa21f2a","5f6067975552dc000aa21f2a_20240207","","","","3","7","486",""
"1987","0","html-button-response","125","2996442","0.0-122.0","5f6067975552dc000aa21f2a","5f6067975552dc000aa21f2a_20240207","","","","7","8","477",""
"6409","0","html-button-response","126","3003356","0.0-123.0","5f6067975552dc000aa21f2a","5f6067975552dc000aa21f2a_20240207","","","","4","4","2106",""
"4810","0","html-button-response","127","3008670","0.0-124.0","5f6067975552dc000aa21f2a","5f6067975552dc000aa21f2a_20240207","","","","3","6","1932",""
"2507","0","html-button-response","128","3011681","0.0-125.0","5f6067975552dc000aa21f2a","5f6067975552dc000aa21f2a_20240207","","","","6","8","1379",""
"2236","0","html-button-response","129","3014426","0.0-126.0","5f6067975552dc000aa21f2a","5f6067975552dc000aa21f2a_20240207","","","","4","3","1824",""
"3274","0","html-button-response","130","3018208","0.0-127.0","5f6067975552dc000aa21f2a","5f6067975552dc000aa21f2a_20240207","","","","5","7","607",""
"1054","0","html-button-response","131","3019765","0.0-128.0","5f6067975552dc000aa21f2a","5f6067975552dc000aa21f2a_20240207","","","","8","8","1036",""
"1899","0","html-button-response","132","3022167","0.0-129.0","5f6067975552dc000aa21f2a","5f6067975552dc000aa21f2a_20240207","","","","4","8","823",""
"1447","0","html-button-response","133","3024117","0.0-130.0","5f6067975552dc000aa21f2a","5f6067975552dc000aa21f2a_20240207","","","","2","7","645",""
"1178","0","html-button-response","134","3025797","0.0-131.0","5f6067975552dc000aa21f2a","5f6067975552dc000aa21f2a_20240207","","","","5","7","614",""
"1217","0","html-button-response","135","3027519","0.0-132.0","5f6067975552dc000aa21f2a","5f6067975552dc000aa21f2a_20240207","","","","6","7","633",""
"1072","0","html-button-response","136","3029098","0.0-133.0","5f6067975552dc000aa21f2a","5f6067975552dc000aa21f2a_20240207","","","","5","4","1372",""
"995","0","html-button-response","137","3030598","0.0-134.0","5f6067975552dc000aa21f2a","5f6067975552dc000aa21f2a_20240207","","","","7","6","1730",""
"1070","0","html-button-response","138","3032172","0.0-135.0","5f6067975552dc000aa21f2a","5f6067975552dc000aa21f2a_20240207","","","","2","7","1104",""
"813","0","html-button-response","139","3033494","0.0-136.0","5f6067975552dc000aa21f2a","5f6067975552dc000aa21f2a_20240207","","","","5","7","1687",""
"1041","0","html-button-response","140","3035038","0.0-137.0","5f6067975552dc000aa21f2a","5f6067975552dc000aa21f2a_20240207","","","","2","6","61",""
"1023","0","html-button-response","141","3036568","0.0-138.0","5f6067975552dc000aa21f2a","5f6067975552dc000aa21f2a_20240207","","","","3","7","443",""
"931","0","html-button-response","142","3038007","0.0-139.0","5f6067975552dc000aa21f2a","5f6067975552dc000aa21f2a_20240207","","","","4","8","1267",""
"1072","0","html-button-response","143","3039583","0.0-140.0","5f6067975552dc000aa21f2a","5f6067975552dc000aa21f2a_20240207","","","","4","7","2159",""
"981","0","html-button-response","144","3041068","0.0-141.0","5f6067975552dc000aa21f2a","5f6067975552dc000aa21f2a_20240207","","","","3","6","1875",""
"1501","0","html-button-response","145","3043078","0.0-142.0","5f6067975552dc000aa21f2a","5f6067975552dc000aa21f2a_20240207","","","","3","7","112",""
"983","0","html-button-response","146","3044565","0.0-143.0","5f6067975552dc000aa21f2a","5f6067975552dc000aa21f2a_20240207","","","","3","7","485",""
"994","0","html-button-response","147","3046062","0.0-144.0","5f6067975552dc000aa21f2a","5f6067975552dc000aa21f2a_20240207","","","","4","7","580",""
"951","0","html-button-response","148","3047519","0.0-145.0","5f6067975552dc000aa21f2a","5f6067975552dc000aa21f2a_20240207","","","","4","7","1374",""
"1462","0","html-button-response","149","3049484","0.0-146.0","5f6067975552dc000aa21f2a","5f6067975552dc000aa21f2a_20240207","","","","4","6","1834",""
"1297","0","html-button-response","150","3051283","0.0-147.0","5f6067975552dc000aa21f2a","5f6067975552dc000aa21f2a_20240207","","","","4","6","2",""
"3306","0","html-button-response","151","3055093","0.0-148.0","5f6067975552dc000aa21f2a","5f6067975552dc000aa21f2a_20240207","","","","5","7","33",""
"1252","0","html-button-response","152","3056849","0.0-149.0","5f6067975552dc000aa21f2a","5f6067975552dc000aa21f2a_20240207","","","","5","4","1529",""
"3062","0","html-button-response","153","3060419","0.0-150.0","5f6067975552dc000aa21f2a","5f6067975552dc000aa21f2a_20240207","","","","3","3","1350",""
"1342","0","html-button-response","154","3062264","0.0-151.0","5f6067975552dc000aa21f2a","5f6067975552dc000aa21f2a_20240207","","","","5","4","646",""
"1297","0","html-button-response","155","3064067","0.0-152.0","5f6067975552dc000aa21f2a","5f6067975552dc000aa21f2a_20240207","","","","4","7","1565",""
"1069","0","html-button-response","156","3065639","0.0-153.0","5f6067975552dc000aa21f2a","5f6067975552dc000aa21f2a_20240207","","","","6","6","1242",""
"1431","0","html-button-response","157","3067573","0.0-154.0","5f6067975552dc000aa21f2a","5f6067975552dc000aa21f2a_20240207","","","","3","6","501",""
"1475","0","html-button-response","158","3069551","0.0-155.0","5f6067975552dc000aa21f2a","5f6067975552dc000aa21f2a_20240207","","","","3","4","1378",""
"1191","0","html-button-response","159","3071249","0.0-156.0","5f6067975552dc000aa21f2a","5f6067975552dc000aa21f2a_20240207","","","","8","2","2198",""
"1955","0","html-button-response","160","3073711","0.0-157.0","5f6067975552dc000aa21f2a","5f6067975552dc000aa21f2a_20240207","","","","4","5","2063",""
"1565","0","html-button-response","161","3075781","0.0-158.0","5f6067975552dc000aa21f2a","5f6067975552dc000aa21f2a_20240207","","","","5","6","1955",""
"1321","0","html-button-response","162","3077609","0.0-159.0","5f6067975552dc000aa21f2a","5f6067975552dc000aa21f2a_20240207","","","","5","7","1608",""
"2106","0","html-button-response","163","3080220","0.0-160.0","5f6067975552dc000aa21f2a","5f6067975552dc000aa21f2a_20240207","","","","5","6","1265",""
"887","0","html-button-response","164","3081614","0.0-161.0","5f6067975552dc000aa21f2a","5f6067975552dc000aa21f2a_20240207","","","","2","6","250",""
"1208","0","html-button-response","165","3083325","0.0-162.0","5f6067975552dc000aa21f2a","5f6067975552dc000aa21f2a_20240207","","","","5","6","621",""
"1491","0","html-button-response","166","3085321","0.0-163.0","5f6067975552dc000aa21f2a","5f6067975552dc000aa21f2a_20240207","","","","3","3","482",""
"2074","0","html-button-response","167","3087901","0.0-164.0","5f6067975552dc000aa21f2a","5f6067975552dc000aa21f2a_20240207","","","","6","3","71",""
"949","0","html-button-response","168","3089353","0.0-165.0","5f6067975552dc000aa21f2a","5f6067975552dc000aa21f2a_20240207","","","","6","7","253",""
"1174","0","html-button-response","169","3091035","0.0-166.0","5f6067975552dc000aa21f2a","5f6067975552dc000aa21f2a_20240207","","","","4","6","723",""
"932","0","html-button-response","170","3092476","0.0-167.0","5f6067975552dc000aa21f2a","5f6067975552dc000aa21f2a_20240207","","","","2","7","1610",""
"1505","0","html-button-response","171","3094487","0.0-168.0","5f6067975552dc000aa21f2a","5f6067975552dc000aa21f2a_20240207","","","","4","6","45",""
"1445","0","html-button-response","172","3096436","0.0-169.0","5f6067975552dc000aa21f2a","5f6067975552dc000aa21f2a_20240207","","","","3","7","1171",""
"1266","0","html-button-response","173","3098205","0.0-170.0","5f6067975552dc000aa21f2a","5f6067975552dc000aa21f2a_20240207","","","","3","7","648",""
"1614","0","html-button-response","174","3100320","0.0-171.0","5f6067975552dc000aa21f2a","5f6067975552dc000aa21f2a_20240207","","","","8","7","783",""
"2497","0","html-button-response","175","3103321","0.0-172.0","5f6067975552dc000aa21f2a","5f6067975552dc000aa21f2a_20240207","","","","5","3","1268",""
"1250","0","html-button-response","176","3105076","0.0-173.0","5f6067975552dc000aa21f2a","5f6067975552dc000aa21f2a_20240207","","","","4","5","756",""
"1012","0","html-button-response","177","3106591","0.0-174.0","5f6067975552dc000aa21f2a","5f6067975552dc000aa21f2a_20240207","","","","5","3","1054",""
"2030","0","html-button-response","178","3109127","0.0-175.0","5f6067975552dc000aa21f2a","5f6067975552dc000aa21f2a_20240207","","","","6","7","1313",""
"1025","0","html-button-response","179","3110656","0.0-176.0","5f6067975552dc000aa21f2a","5f6067975552dc000aa21f2a_20240207","","","","3","8","922",""
"1148","0","html-button-response","180","3112308","0.0-177.0","5f6067975552dc000aa21f2a","5f6067975552dc000aa21f2a_20240207","","","","4","6","227",""
"945","0","html-button-response","181","3113760","0.0-178.0","5f6067975552dc000aa21f2a","5f6067975552dc000aa21f2a_20240207","","","","5","7","302",""
"1295","0","html-button-response","182","3115562","0.0-179.0","5f6067975552dc000aa21f2a","5f6067975552dc000aa21f2a_20240207","","","","3","7","516",""
"871","0","html-button-response","183","3116941","0.0-180.0","5f6067975552dc000aa21f2a","5f6067975552dc000aa21f2a_20240207","","","","3","4","1335",""
"1177","0","html-button-response","184","3118621","0.0-181.0","5f6067975552dc000aa21f2a","5f6067975552dc000aa21f2a_20240207","","","","6","3","1494",""
"1343","0","html-button-response","185","3120466","0.0-182.0","5f6067975552dc000aa21f2a","5f6067975552dc000aa21f2a_20240207","","","","9","5","951",""
"1009","0","html-button-response","186","3121983","0.0-183.0","5f6067975552dc000aa21f2a","5f6067975552dc000aa21f2a_20240207","","","","5","7","1691",""
"1156","0","html-button-response","187","3123646","0.0-184.0","5f6067975552dc000aa21f2a","5f6067975552dc000aa21f2a_20240207","","","","2","6","771",""
"2073","0","html-button-response","188","3126227","0.0-185.0","5f6067975552dc000aa21f2a","5f6067975552dc000aa21f2a_20240207","","","","3","7","1655",""
"1431","0","html-button-response","189","3128163","0.0-186.0","5f6067975552dc000aa21f2a","5f6067975552dc000aa21f2a_20240207","","","","2","9","880",""
"1491","0","html-button-response","190","3130158","0.0-187.0","5f6067975552dc000aa21f2a","5f6067975552dc000aa21f2a_20240207","","","","2","5","696",""
"3306","0","html-button-response","191","3133968","0.0-188.0","5f6067975552dc000aa21f2a","5f6067975552dc000aa21f2a_20240207","","","","3","7","255",""
"1444","0","html-button-response","192","3135917","0.0-189.0","5f6067975552dc000aa21f2a","5f6067975552dc000aa21f2a_20240207","","","","4","2","272",""
"1130","0","html-button-response","193","3137552","0.0-190.0","5f6067975552dc000aa21f2a","5f6067975552dc000aa21f2a_20240207","","","","5","3","1987",""
"1234","0","html-button-response","194","3139293","0.0-191.0","5f6067975552dc000aa21f2a","5f6067975552dc000aa21f2a_20240207","","","","2","3","1496",""
"1563","0","html-button-response","195","3141361","0.0-192.0","5f6067975552dc000aa21f2a","5f6067975552dc000aa21f2a_20240207","","","","1","6","903",""
"1458","0","html-button-response","196","3143328","0.0-193.0","5f6067975552dc000aa21f2a","5f6067975552dc000aa21f2a_20240207","","","","2","7","299",""
"1552","0","html-button-response","197","3145383","0.0-194.0","5f6067975552dc000aa21f2a","5f6067975552dc000aa21f2a_20240207","","","","4","8","37",""
"1051","0","html-button-response","198","3146944","0.0-195.0","5f6067975552dc000aa21f2a","5f6067975552dc000aa21f2a_20240207","","","","1","6","992",""
"1386","0","html-button-response","199","3148833","0.0-196.0","5f6067975552dc000aa21f2a","5f6067975552dc000aa21f2a_20240207","","","","2","7","1261",""
"1459","0","html-button-response","200","3150797","0.0-197.0","5f6067975552dc000aa21f2a","5f6067975552dc000aa21f2a_20240207","","","","4","7","1167",""
"1370","0","html-button-response","201","3152673","0.0-198.0","5f6067975552dc000aa21f2a","5f6067975552dc000aa21f2a_20240207","","","","3","7","1533",""
"2077","0","html-button-response","202","3155252","0.0-199.0","5f6067975552dc000aa21f2a","5f6067975552dc000aa21f2a_20240207","","","","3","3","388",""
"1041","0","html-button-response","203","3156798","0.0-200.0","5f6067975552dc000aa21f2a","5f6067975552dc000aa21f2a_20240207","","","","7","6","1016",""
"1186","0","html-button-response","204","3158493","0.0-201.0","5f6067975552dc000aa21f2a","5f6067975552dc000aa21f2a_20240207","","","","4","2","1318",""
"1929","0","html-button-response","205","3160923","0.0-202.0","5f6067975552dc000aa21f2a","5f6067975552dc000aa21f2a_20240207","","","","2","5","2142",""
"1233","0","html-button-response","206","3162664","0.0-203.0","5f6067975552dc000aa21f2a","5f6067975552dc000aa21f2a_20240207","","","","5","8","527",""
"1233","0","html-button-response","207","3164405","0.0-204.0","5f6067975552dc000aa21f2a","5f6067975552dc000aa21f2a_20240207","","","","3","7","1422",""
"1401","0","html-button-response","208","3166309","0.0-205.0","5f6067975552dc000aa21f2a","5f6067975552dc000aa21f2a_20240207","","","","6","6","1798",""
"4595","0","html-button-response","209","3171407","0.0-206.0","5f6067975552dc000aa21f2a","5f6067975552dc000aa21f2a_20240207","","","","5","7","766",""
"1161","0","html-button-response","210","3173075","0.0-207.0","5f6067975552dc000aa21f2a","5f6067975552dc000aa21f2a_20240207","","","","5","3","964",""
"1111","0","html-button-response","211","3174695","0.0-208.0","5f6067975552dc000aa21f2a","5f6067975552dc000aa21f2a_20240207","","","","5","7","2037",""
"1460","0","html-button-response","212","3176659","0.0-209.0","5f6067975552dc000aa21f2a","5f6067975552dc000aa21f2a_20240207","","","","3","2","1284",""
"1488","0","html-button-response","213","3178655","0.0-210.0","5f6067975552dc000aa21f2a","5f6067975552dc000aa21f2a_20240207","","","","3","5","1182",""
"981","0","html-button-response","214","3180140","0.0-211.0","5f6067975552dc000aa21f2a","5f6067975552dc000aa21f2a_20240207","","","","4","7","2098",""
"1758","0","html-button-response","215","3182404","0.0-212.0","5f6067975552dc000aa21f2a","5f6067975552dc000aa21f2a_20240207","","","","3","3","397",""
"1953","0","html-button-response","216","3184865","0.0-213.0","5f6067975552dc000aa21f2a","5f6067975552dc000aa21f2a_20240207","","","","8","2","635",""
"1130","0","html-button-response","217","3186498","0.0-214.0","5f6067975552dc000aa21f2a","5f6067975552dc000aa21f2a_20240207","","","","5","7","1128",""
"1759","0","html-button-response","218","3188766","0.0-215.0","5f6067975552dc000aa21f2a","5f6067975552dc000aa21f2a_20240207","","","","5","6","114",""
"2150","0","html-button-response","219","3191421","0.0-216.0","5f6067975552dc000aa21f2a","5f6067975552dc000aa21f2a_20240207","","","","4","3","327",""
"1353","0","html-button-response","220","3193280","0.0-217.0","5f6067975552dc000aa21f2a","5f6067975552dc000aa21f2a_20240207","","","","4","8","8",""
"2091","0","html-button-response","221","3195876","0.0-218.0","5f6067975552dc000aa21f2a","5f6067975552dc000aa21f2a_20240207","","","","6","6","354",""
"1688","0","html-button-response","222","3198067","0.0-219.0","5f6067975552dc000aa21f2a","5f6067975552dc000aa21f2a_20240207","","","","4","3","959",""
"1221","0","html-button-response","223","3199791","0.0-220.0","5f6067975552dc000aa21f2a","5f6067975552dc000aa21f2a_20240207","","","","3","6","2127",""
"1083","0","html-button-response","224","3201381","0.0-221.0","5f6067975552dc000aa21f2a","5f6067975552dc000aa21f2a_20240207","","","","3","3","1535",""
"1417","0","html-button-response","225","3203301","0.0-222.0","5f6067975552dc000aa21f2a","5f6067975552dc000aa21f2a_20240207","","","","5","8","1854",""
"4235","0","html-button-response","226","3208040","0.0-223.0","5f6067975552dc000aa21f2a","5f6067975552dc000aa21f2a_20240207","","","","7","7","847",""
"5723","0","html-button-response","227","3214265","0.0-224.0","5f6067975552dc000aa21f2a","5f6067975552dc000aa21f2a_20240207","","","","5","6","750",""
"20527","0","html-button-response","228","3235297","0.0-225.0","5f6067975552dc000aa21f2a","5f6067975552dc000aa21f2a_20240207","","","Thank you. You have reached the end. 
                       <br>Click the button below to reveal your compensation.
                        <br><br>","","","","617,1916,2002,632,1240,895,1778,930,1212,27,576,1976,340,529,1133,29,292,1232,1050,1541,868,1140,770,1220,592,615,1289,1593,1189,2021,801,1981,594,48,1551,1518,1393,1547,565,258,1297,1024,1340,1420,652,2192,2148,1717,221,165,870,173,436,1538,10,752,1523,856,943,1669,668,1385,467,1802,1762,641,1115,1606,1768,74,624,238,408,1325,343,403,604,1044,2103,51,1794,1572,163,284,640,229,88,517,735,739,275,2008,373,610,961,1697,1110,572,1103,1271,1327,1559,93,223,58,500,1025,1998,1343,271,1031,1651,1394,476,754,858,486,477,2106,1932,1379,1824,607,1036,823,645,614,633,1372,1730,1104,1687,61,443,1267,2159,1875,112,485,580,1374,1834,2,33,1529,1350,646,1565,1242,501,1378,2198,2063,1955,1608,1265,250,621,482,71,253,723,1610,45,1171,648,783,1268,756,1054,1313,922,227,302,516,1335,1494,951,1691,771,1655,880,696,255,272,1987,1496,903,299,37,992,1261,1167,1533,388,1016,1318,2142,527,1422,1798,766,964,2037,1284,1182,2098,397,635,1128,114,327,8,354,959,2127,1535,1854,847,750"
