"rt","response","trial_type","trial_index","time_elapsed","internal_node_id","part_ID","ID_DATE","screen_id","understand_correct","stimulus","arousal","valence","img_id","tested_trial_idx"
"56619","0","html-button-response","0","56620","0.0-0.0","5f3227893ca51916b4ff6d9d","5f3227893ca51916b4ff6d9d_20240207","","","","","","",""
"5480","[object Object]","survey-html-form","1","62604","0.0-1.0","5f3227893ca51916b4ff6d9d","5f3227893ca51916b4ff6d9d_20240207","prolific_id_page","","","","","",""
"80061","0","html-button-response","2","142667","0.0-2.0","5f3227893ca51916b4ff6d9d","5f3227893ca51916b4ff6d9d_20240207","","","","","","",""
"72563","0","html-button-response","3","215733","0.0-3.0-0.0","5f3227893ca51916b4ff6d9d","5f3227893ca51916b4ff6d9d_20240207","","false","","","","",""
"462838","0","html-button-response","4","680795","0.0-3.1-0.1","5f3227893ca51916b4ff6d9d","5f3227893ca51916b4ff6d9d_20240207","","true","","","","",""
"1239","0","html-button-response","5","682547","0.0-4.0","5f3227893ca51916b4ff6d9d","5f3227893ca51916b4ff6d9d_20240207","","","
<div>
Great! You will now go on to rate the faces.
<br><br>
</div>
","","","",""
"17842","0","html-button-response","6","700900","0.0-5.0","5f3227893ca51916b4ff6d9d","5f3227893ca51916b4ff6d9d_20240207","","","","5","1","1569",""
"19033","0","html-button-response","7","720443","0.0-6.0","5f3227893ca51916b4ff6d9d","5f3227893ca51916b4ff6d9d_20240207","","","","4","5","1809",""
"10614","0","html-button-response","8","731572","0.0-7.0","5f3227893ca51916b4ff6d9d","5f3227893ca51916b4ff6d9d_20240207","","","","5","1","1806",""
"8130","0","html-button-response","9","740211","0.0-8.0","5f3227893ca51916b4ff6d9d","5f3227893ca51916b4ff6d9d_20240207","","","","4","5","784",""
"3283","0","html-button-response","10","744010","0.0-9.0","5f3227893ca51916b4ff6d9d","5f3227893ca51916b4ff6d9d_20240207","","","","5","5","1150",""
"6039","0","html-button-response","11","750554","0.0-10.0","5f3227893ca51916b4ff6d9d","5f3227893ca51916b4ff6d9d_20240207","","","","5","3","1737",""
"5629","0","html-button-response","12","756691","0.0-11.0","5f3227893ca51916b4ff6d9d","5f3227893ca51916b4ff6d9d_20240207","","","","5","3","985",""
"5744","0","html-button-response","13","762946","0.0-12.0","5f3227893ca51916b4ff6d9d","5f3227893ca51916b4ff6d9d_20240207","","","","5","3","288",""
"3480","0","html-button-response","14","766939","0.0-13.0","5f3227893ca51916b4ff6d9d","5f3227893ca51916b4ff6d9d_20240207","","","","5","5","1981",""
"3066","0","html-button-response","15","770515","0.0-14.0","5f3227893ca51916b4ff6d9d","5f3227893ca51916b4ff6d9d_20240207","","","","5","5","1639",""
"7579","0","html-button-response","16","778595","0.0-15.0","5f3227893ca51916b4ff6d9d","5f3227893ca51916b4ff6d9d_20240207","","","","4","5","2087",""
"4307","0","html-button-response","17","783411","0.0-16.0","5f3227893ca51916b4ff6d9d","5f3227893ca51916b4ff6d9d_20240207","","","","5","3","1584",""
"54159","0","html-button-response","18","838075","0.0-17.0","5f3227893ca51916b4ff6d9d","5f3227893ca51916b4ff6d9d_20240207","","","","5","2","884",""
"3046","0","html-button-response","19","841635","0.0-18.0","5f3227893ca51916b4ff6d9d","5f3227893ca51916b4ff6d9d_20240207","","","","5","5","1933",""
"5453","0","html-button-response","20","847602","0.0-19.0","5f3227893ca51916b4ff6d9d","5f3227893ca51916b4ff6d9d_20240207","","","","5","6","1795",""
"2802","0","html-button-response","21","850914","0.0-20.0","5f3227893ca51916b4ff6d9d","5f3227893ca51916b4ff6d9d_20240207","","","","5","3","1001",""
"3979","0","html-button-response","22","855402","0.0-21.0","5f3227893ca51916b4ff6d9d","5f3227893ca51916b4ff6d9d_20240207","","","","5","6","1216",""
"6284","0","html-button-response","23","862194","0.0-22.0","5f3227893ca51916b4ff6d9d","5f3227893ca51916b4ff6d9d_20240207","","","","5","4","95",""
"9498","0","html-button-response","24","872195","0.0-23.0","5f3227893ca51916b4ff6d9d","5f3227893ca51916b4ff6d9d_20240207","","","","5","5","669",""
"5232","0","html-button-response","25","877931","0.0-24.0","5f3227893ca51916b4ff6d9d","5f3227893ca51916b4ff6d9d_20240207","","","","5","7","1719",""
"2306","0","html-button-response","26","880747","0.0-25.0","5f3227893ca51916b4ff6d9d","5f3227893ca51916b4ff6d9d_20240207","","","","5","7","1732",""
"3481","0","html-button-response","27","884739","0.0-26.0","5f3227893ca51916b4ff6d9d","5f3227893ca51916b4ff6d9d_20240207","","","","5","4","1372",""
"3335","0","html-button-response","28","888578","0.0-27.0","5f3227893ca51916b4ff6d9d","5f3227893ca51916b4ff6d9d_20240207","","","","5","5","2099",""
"4905","0","html-button-response","29","893986","0.0-28.0","5f3227893ca51916b4ff6d9d","5f3227893ca51916b4ff6d9d_20240207","","","","5","1","1440",""
"5202","0","html-button-response","30","899700","0.0-29.0","5f3227893ca51916b4ff6d9d","5f3227893ca51916b4ff6d9d_20240207","","","","5","2","88",""
"2923","0","html-button-response","31","903138","0.0-30.0","5f3227893ca51916b4ff6d9d","5f3227893ca51916b4ff6d9d_20240207","","","","5","1","195",""
"2779","0","html-button-response","32","906427","0.0-31.0","5f3227893ca51916b4ff6d9d","5f3227893ca51916b4ff6d9d_20240207","","","","5","2","1127",""
"4285","0","html-button-response","33","911226","0.0-32.0","5f3227893ca51916b4ff6d9d","5f3227893ca51916b4ff6d9d_20240207","","","","5","4","132",""
"2617","0","html-button-response","34","914347","0.0-33.0","5f3227893ca51916b4ff6d9d","5f3227893ca51916b4ff6d9d_20240207","","","","5","2","1739",""
"2208","0","html-button-response","35","917058","0.0-34.0","5f3227893ca51916b4ff6d9d","5f3227893ca51916b4ff6d9d_20240207","","","","5","1","377",""
"3511","0","html-button-response","36","921074","0.0-35.0","5f3227893ca51916b4ff6d9d","5f3227893ca51916b4ff6d9d_20240207","","","","5","5","1108",""
"9421","0","html-button-response","37","931010","0.0-36.0","5f3227893ca51916b4ff6d9d","5f3227893ca51916b4ff6d9d_20240207","","","","4","5","758",""
"4190","0","html-button-response","38","935714","0.0-37.0","5f3227893ca51916b4ff6d9d","5f3227893ca51916b4ff6d9d_20240207","","","","5","6","1095",""
"3054","0","html-button-response","39","939282","0.0-38.0","5f3227893ca51916b4ff6d9d","5f3227893ca51916b4ff6d9d_20240207","","","","5","2","917",""
"2887","0","html-button-response","40","942674","0.0-39.0","5f3227893ca51916b4ff6d9d","5f3227893ca51916b4ff6d9d_20240207","","","","5","1","26",""
"5367","0","html-button-response","41","948547","0.0-40.0","5f3227893ca51916b4ff6d9d","5f3227893ca51916b4ff6d9d_20240207","","","","6","1","180",""
"4702","0","html-button-response","42","953762","0.0-41.0","5f3227893ca51916b4ff6d9d","5f3227893ca51916b4ff6d9d_20240207","","","","5","5","628",""
"5128","0","html-button-response","43","959394","0.0-42.0","5f3227893ca51916b4ff6d9d","5f3227893ca51916b4ff6d9d_20240207","","","","4","5","69",""
"2256","0","html-button-response","44","962163","0.0-43.0","5f3227893ca51916b4ff6d9d","5f3227893ca51916b4ff6d9d_20240207","","","","5","5","2188",""
"3082","0","html-button-response","45","965748","0.0-44.0","5f3227893ca51916b4ff6d9d","5f3227893ca51916b4ff6d9d_20240207","","","","5","6","1418",""
"2376","0","html-button-response","46","968627","0.0-45.0","5f3227893ca51916b4ff6d9d","5f3227893ca51916b4ff6d9d_20240207","","","","5","5","1849",""
"2608","0","html-button-response","47","971747","0.0-46.0","5f3227893ca51916b4ff6d9d","5f3227893ca51916b4ff6d9d_20240207","","","","5","3","128",""
"2332","0","html-button-response","48","974587","0.0-47.0","5f3227893ca51916b4ff6d9d","5f3227893ca51916b4ff6d9d_20240207","","","","5","6","1745",""
"8279","0","html-button-response","49","983379","0.0-48.0","5f3227893ca51916b4ff6d9d","5f3227893ca51916b4ff6d9d_20240207","","","","6","1","907",""
"2537","0","html-button-response","50","986418","0.0-49.0","5f3227893ca51916b4ff6d9d","5f3227893ca51916b4ff6d9d_20240207","","","","5","5","1499",""
"3088","0","html-button-response","51","990018","0.0-50.0","5f3227893ca51916b4ff6d9d","5f3227893ca51916b4ff6d9d_20240207","","","","5","6","1589",""
"2549","0","html-button-response","52","993074","0.0-51.0","5f3227893ca51916b4ff6d9d","5f3227893ca51916b4ff6d9d_20240207","","","","5","6","1785",""
"3934","0","html-button-response","53","997522","0.0-52.0","5f3227893ca51916b4ff6d9d","5f3227893ca51916b4ff6d9d_20240207","","","","3","5","404",""
"4331","0","html-button-response","54","1002362","0.0-53.0","5f3227893ca51916b4ff6d9d","5f3227893ca51916b4ff6d9d_20240207","","","","5","1","751",""
"3442","0","html-button-response","55","1006306","0.0-54.0","5f3227893ca51916b4ff6d9d","5f3227893ca51916b4ff6d9d_20240207","","","","3","5","613",""
"2008","0","html-button-response","56","1008819","0.0-55.0","5f3227893ca51916b4ff6d9d","5f3227893ca51916b4ff6d9d_20240207","","","","5","5","2003",""
"4320","0","html-button-response","57","1013650","0.0-56.0","5f3227893ca51916b4ff6d9d","5f3227893ca51916b4ff6d9d_20240207","","","","5","4","653",""
"5317","0","html-button-response","58","1019475","0.0-57.0","5f3227893ca51916b4ff6d9d","5f3227893ca51916b4ff6d9d_20240207","","","","5","5","1448",""
"2782","0","html-button-response","59","1022772","0.0-58.0","5f3227893ca51916b4ff6d9d","5f3227893ca51916b4ff6d9d_20240207","","","","5","2","1529",""
"2946","0","html-button-response","60","1026234","0.0-59.0","5f3227893ca51916b4ff6d9d","5f3227893ca51916b4ff6d9d_20240207","","","","6","2","1880",""
"2747","0","html-button-response","61","1029491","0.0-60.0","5f3227893ca51916b4ff6d9d","5f3227893ca51916b4ff6d9d_20240207","","","","5","4","310",""
"2049","0","html-button-response","62","1032043","0.0-61.0","5f3227893ca51916b4ff6d9d","5f3227893ca51916b4ff6d9d_20240207","","","","5","5","1278",""
"4022","0","html-button-response","63","1036578","0.0-62.0","5f3227893ca51916b4ff6d9d","5f3227893ca51916b4ff6d9d_20240207","","","","5","5","1567",""
"2705","0","html-button-response","64","1039787","0.0-63.0","5f3227893ca51916b4ff6d9d","5f3227893ca51916b4ff6d9d_20240207","","","","5","3","1907",""
"2857","0","html-button-response","65","1043146","0.0-64.0","5f3227893ca51916b4ff6d9d","5f3227893ca51916b4ff6d9d_20240207","","","","5","2","936",""
"2935","0","html-button-response","66","1046594","0.0-65.0","5f3227893ca51916b4ff6d9d","5f3227893ca51916b4ff6d9d_20240207","","","","6","2","1285",""
"3600","0","html-button-response","67","1050698","0.0-66.0","5f3227893ca51916b4ff6d9d","5f3227893ca51916b4ff6d9d_20240207","","","","5","5","421",""
"2438","0","html-button-response","68","1053642","0.0-67.0","5f3227893ca51916b4ff6d9d","5f3227893ca51916b4ff6d9d_20240207","","","","5","6","1887",""
"2964","0","html-button-response","69","1057123","0.0-68.0","5f3227893ca51916b4ff6d9d","5f3227893ca51916b4ff6d9d_20240207","","","","7","1","13",""
"2349","0","html-button-response","70","1059986","0.0-69.0","5f3227893ca51916b4ff6d9d","5f3227893ca51916b4ff6d9d_20240207","","","","5","3","1411",""
"4542","0","html-button-response","71","1065034","0.0-70.0","5f3227893ca51916b4ff6d9d","5f3227893ca51916b4ff6d9d_20240207","","","","6","5","131",""
"2188","0","html-button-response","72","1067731","0.0-71.0","5f3227893ca51916b4ff6d9d","5f3227893ca51916b4ff6d9d_20240207","","","","5","5","1629",""
"3990","0","html-button-response","73","1072234","0.0-72.0","5f3227893ca51916b4ff6d9d","5f3227893ca51916b4ff6d9d_20240207","","","","5","4","332",""
"2783","0","html-button-response","74","1075523","0.0-73.0","5f3227893ca51916b4ff6d9d","5f3227893ca51916b4ff6d9d_20240207","","","","5","4","666",""
"4085","0","html-button-response","75","1080115","0.0-74.0","5f3227893ca51916b4ff6d9d","5f3227893ca51916b4ff6d9d_20240207","","","","6","3","690",""
"1871","0","html-button-response","76","1082490","0.0-75.0","5f3227893ca51916b4ff6d9d","5f3227893ca51916b4ff6d9d_20240207","","","","5","5","1835",""
"3500","0","html-button-response","77","1086506","0.0-76.0","5f3227893ca51916b4ff6d9d","5f3227893ca51916b4ff6d9d_20240207","","","","5","4","298",""
"2972","0","html-button-response","78","1089986","0.0-77.0","5f3227893ca51916b4ff6d9d","5f3227893ca51916b4ff6d9d_20240207","","","","6","5","551",""
"6772","0","html-button-response","79","1097259","0.0-78.0","5f3227893ca51916b4ff6d9d","5f3227893ca51916b4ff6d9d_20240207","","","","6","5","1057",""
"2165","0","html-button-response","80","1099938","0.0-79.0","5f3227893ca51916b4ff6d9d","5f3227893ca51916b4ff6d9d_20240207","","","","5","5","1956",""
"2465","0","html-button-response","81","1102907","0.0-80.0","5f3227893ca51916b4ff6d9d","5f3227893ca51916b4ff6d9d_20240207","","","","5","6","1731",""
"3529","0","html-button-response","82","1106955","0.0-81.0","5f3227893ca51916b4ff6d9d","5f3227893ca51916b4ff6d9d_20240207","","","","6","5","214",""
"3494","0","html-button-response","83","1110954","0.0-82.0","5f3227893ca51916b4ff6d9d","5f3227893ca51916b4ff6d9d_20240207","","","","5","4","804",""
"3748","0","html-button-response","84","1115211","0.0-83.0","5f3227893ca51916b4ff6d9d","5f3227893ca51916b4ff6d9d_20240207","","","","5","1","1231",""
"4393","0","html-button-response","85","1120106","0.0-84.0","5f3227893ca51916b4ff6d9d","5f3227893ca51916b4ff6d9d_20240207","","","","6","5","60",""
"3795","0","html-button-response","86","1124411","0.0-85.0","5f3227893ca51916b4ff6d9d","5f3227893ca51916b4ff6d9d_20240207","","","","5","3","676",""
"2501","0","html-button-response","87","1127426","0.0-86.0","5f3227893ca51916b4ff6d9d","5f3227893ca51916b4ff6d9d_20240207","","","","5","5","774",""
"3541","0","html-button-response","88","1131474","0.0-87.0","5f3227893ca51916b4ff6d9d","5f3227893ca51916b4ff6d9d_20240207","","","","6","2","1582",""
"3493","0","html-button-response","89","1135475","0.0-88.0","5f3227893ca51916b4ff6d9d","5f3227893ca51916b4ff6d9d_20240207","","","","5","5","1106",""
"3913","0","html-button-response","90","1139898","0.0-89.0","5f3227893ca51916b4ff6d9d","5f3227893ca51916b4ff6d9d_20240207","","","","5","5","1602",""
"2415","0","html-button-response","91","1142818","0.0-90.0","5f3227893ca51916b4ff6d9d","5f3227893ca51916b4ff6d9d_20240207","","","","5","3","413",""
"2549","0","html-button-response","92","1145874","0.0-91.0","5f3227893ca51916b4ff6d9d","5f3227893ca51916b4ff6d9d_20240207","","","","6","2","1622",""
"2139","0","html-button-response","93","1148522","0.0-92.0","5f3227893ca51916b4ff6d9d","5f3227893ca51916b4ff6d9d_20240207","","","","5","5","1680",""
"2372","0","html-button-response","94","1151411","0.0-93.0","5f3227893ca51916b4ff6d9d","5f3227893ca51916b4ff6d9d_20240207","","","","6","1","1063",""
"3636","0","html-button-response","95","1155562","0.0-94.0","5f3227893ca51916b4ff6d9d","5f3227893ca51916b4ff6d9d_20240207","","","","6","5","36",""
"7045","0","html-button-response","96","1163114","0.0-95.0","5f3227893ca51916b4ff6d9d","5f3227893ca51916b4ff6d9d_20240207","","","","6","2","1790",""
"3000","0","html-button-response","97","1166618","0.0-96.0","5f3227893ca51916b4ff6d9d","5f3227893ca51916b4ff6d9d_20240207","","","","5","5","972",""
"2157","0","html-button-response","98","1169290","0.0-97.0","5f3227893ca51916b4ff6d9d","5f3227893ca51916b4ff6d9d_20240207","","","","5","5","1854",""
"1992","0","html-button-response","99","1171795","0.0-98.0","5f3227893ca51916b4ff6d9d","5f3227893ca51916b4ff6d9d_20240207","","","","5","5","1307",""
"1815","0","html-button-response","100","1174122","0.0-99.0","5f3227893ca51916b4ff6d9d","5f3227893ca51916b4ff6d9d_20240207","","","","5","5","1660",""
"3074","0","html-button-response","101","1177706","0.0-100.0","5f3227893ca51916b4ff6d9d","5f3227893ca51916b4ff6d9d_20240207","","","","6","5","1033",""
"2577","0","html-button-response","102","1180787","0.0-101.0","5f3227893ca51916b4ff6d9d","5f3227893ca51916b4ff6d9d_20240207","","","","5","4","490",""
"2719","0","html-button-response","103","1184010","0.0-102.0","5f3227893ca51916b4ff6d9d","5f3227893ca51916b4ff6d9d_20240207","","","","6","2","52",""
"8332","0","html-button-response","104","1192850","0.0-103.0","5f3227893ca51916b4ff6d9d","5f3227893ca51916b4ff6d9d_20240207","","","","6","5","709",""
"5689","0","html-button-response","105","1199050","0.0-104.0","5f3227893ca51916b4ff6d9d","5f3227893ca51916b4ff6d9d_20240207","","","","5","6","1019",""
"3283","0","html-button-response","106","1202850","0.0-105.0","5f3227893ca51916b4ff6d9d","5f3227893ca51916b4ff6d9d_20240207","","","","7","1","1531",""
"3259","0","html-button-response","107","1206620","0.0-106.0","5f3227893ca51916b4ff6d9d","5f3227893ca51916b4ff6d9d_20240207","","","","5","6","2059",""
"4549","0","html-button-response","108","1211682","0.0-107.0","5f3227893ca51916b4ff6d9d","5f3227893ca51916b4ff6d9d_20240207","","","","5","5","1329",""
"3622","0","html-button-response","109","1215810","0.0-108.0","5f3227893ca51916b4ff6d9d","5f3227893ca51916b4ff6d9d_20240207","","","","5","5","2165",""
"2889","0","html-button-response","110","1219202","0.0-109.0","5f3227893ca51916b4ff6d9d","5f3227893ca51916b4ff6d9d_20240207","","","","6","5","99",""
"3950","0","html-button-response","111","1223666","0.0-110.0","5f3227893ca51916b4ff6d9d","5f3227893ca51916b4ff6d9d_20240207","","","","6","4","322",""
"3279","0","html-button-response","112","1227459","0.0-111.0","5f3227893ca51916b4ff6d9d","5f3227893ca51916b4ff6d9d_20240207","","","","6","2","919",""
"3730","0","html-button-response","113","1231691","0.0-112.0","5f3227893ca51916b4ff6d9d","5f3227893ca51916b4ff6d9d_20240207","","","","6","4","480",""
"2701","0","html-button-response","114","1234906","0.0-113.0","5f3227893ca51916b4ff6d9d","5f3227893ca51916b4ff6d9d_20240207","","","","6","5","420",""
"3710","0","html-button-response","115","1239122","0.0-114.0","5f3227893ca51916b4ff6d9d","5f3227893ca51916b4ff6d9d_20240207","","","","6","2","1401",""
"3353","0","html-button-response","116","1242979","0.0-115.0","5f3227893ca51916b4ff6d9d","5f3227893ca51916b4ff6d9d_20240207","","","","6","5","484",""
"2377","0","html-button-response","117","1245867","0.0-116.0","5f3227893ca51916b4ff6d9d","5f3227893ca51916b4ff6d9d_20240207","","","","6","5","355",""
"2230","0","html-button-response","118","1248602","0.0-117.0","5f3227893ca51916b4ff6d9d","5f3227893ca51916b4ff6d9d_20240207","","","","5","5","2100",""
"42831","0","html-button-response","119","1291938","0.0-118.0","5f3227893ca51916b4ff6d9d","5f3227893ca51916b4ff6d9d_20240207","","","","5","5","1315",""
"4465","0","html-button-response","120","1296907","0.0-119.0","5f3227893ca51916b4ff6d9d","5f3227893ca51916b4ff6d9d_20240207","","","","5","6","2071",""
"3290","0","html-button-response","121","1300706","0.0-120.0","5f3227893ca51916b4ff6d9d","5f3227893ca51916b4ff6d9d_20240207","","","","5","2","1399",""
"2139","0","html-button-response","122","1303346","0.0-121.0","5f3227893ca51916b4ff6d9d","5f3227893ca51916b4ff6d9d_20240207","","","","5","5","1341",""
"2314","0","html-button-response","123","1306170","0.0-122.0","5f3227893ca51916b4ff6d9d","5f3227893ca51916b4ff6d9d_20240207","","","","6","5","223",""
"3120","0","html-button-response","124","1309794","0.0-123.0","5f3227893ca51916b4ff6d9d","5f3227893ca51916b4ff6d9d_20240207","","","","6","5","997",""
"2284","0","html-button-response","125","1312586","0.0-124.0","5f3227893ca51916b4ff6d9d","5f3227893ca51916b4ff6d9d_20240207","","","","6","2","390",""
"3549","0","html-button-response","126","1316650","0.0-125.0","5f3227893ca51916b4ff6d9d","5f3227893ca51916b4ff6d9d_20240207","","","","3","5","1642",""
"2875","0","html-button-response","127","1320042","0.0-126.0","5f3227893ca51916b4ff6d9d","5f3227893ca51916b4ff6d9d_20240207","","","","5","2","442",""
"3118","0","html-button-response","128","1323667","0.0-127.0","5f3227893ca51916b4ff6d9d","5f3227893ca51916b4ff6d9d_20240207","","","","5","1","1638",""
"3359","0","html-button-response","129","1327530","0.0-128.0","5f3227893ca51916b4ff6d9d","5f3227893ca51916b4ff6d9d_20240207","","","","4","5","1525",""
"4099","0","html-button-response","130","1332138","0.0-129.0","5f3227893ca51916b4ff6d9d","5f3227893ca51916b4ff6d9d_20240207","","","","4","5","121",""
"2222","0","html-button-response","131","1334875","0.0-130.0","5f3227893ca51916b4ff6d9d","5f3227893ca51916b4ff6d9d_20240207","","","","4","5","369",""
"2293","0","html-button-response","132","1337675","0.0-131.0","5f3227893ca51916b4ff6d9d","5f3227893ca51916b4ff6d9d_20240207","","","","4","5","1613",""
"2350","0","html-button-response","133","1340530","0.0-132.0","5f3227893ca51916b4ff6d9d","5f3227893ca51916b4ff6d9d_20240207","","","","4","5","30",""
"3145","0","html-button-response","134","1344178","0.0-133.0","5f3227893ca51916b4ff6d9d","5f3227893ca51916b4ff6d9d_20240207","","","","5","4","321",""
"2922","0","html-button-response","135","1347602","0.0-134.0","5f3227893ca51916b4ff6d9d","5f3227893ca51916b4ff6d9d_20240207","","","","5","2","1895",""
"2876","0","html-button-response","136","1350986","0.0-135.0","5f3227893ca51916b4ff6d9d","5f3227893ca51916b4ff6d9d_20240207","","","","4","5","1829",""
"3260","0","html-button-response","137","1354763","0.0-136.0","5f3227893ca51916b4ff6d9d","5f3227893ca51916b4ff6d9d_20240207","","","","4","5","788",""
"2143","0","html-button-response","138","1357411","0.0-137.0","5f3227893ca51916b4ff6d9d","5f3227893ca51916b4ff6d9d_20240207","","","","4","5","384",""
"4408","0","html-button-response","139","1362330","0.0-138.0","5f3227893ca51916b4ff6d9d","5f3227893ca51916b4ff6d9d_20240207","","","","4","5","2045",""
"3994","0","html-button-response","140","1366842","0.0-139.0","5f3227893ca51916b4ff6d9d","5f3227893ca51916b4ff6d9d_20240207","","","","4","6","1421",""
"5413","0","html-button-response","141","1372770","0.0-140.0","5f3227893ca51916b4ff6d9d","5f3227893ca51916b4ff6d9d_20240207","","","","4","4","597",""
"3694","0","html-button-response","142","1376970","0.0-141.0","5f3227893ca51916b4ff6d9d","5f3227893ca51916b4ff6d9d_20240207","","","","3","5","1179",""
"6106","0","html-button-response","143","1383578","0.0-142.0","5f3227893ca51916b4ff6d9d","5f3227893ca51916b4ff6d9d_20240207","","","","5","4","1087",""
"2760","0","html-button-response","144","1386842","0.0-143.0","5f3227893ca51916b4ff6d9d","5f3227893ca51916b4ff6d9d_20240207","","","","5","2","2040",""
"3746","0","html-button-response","145","1391098","0.0-144.0","5f3227893ca51916b4ff6d9d","5f3227893ca51916b4ff6d9d_20240207","","","","3","5","238",""
"2516","0","html-button-response","146","1394138","0.0-145.0","5f3227893ca51916b4ff6d9d","5f3227893ca51916b4ff6d9d_20240207","","","","5","2","544",""
"2444","0","html-button-response","147","1397089","0.0-146.0","5f3227893ca51916b4ff6d9d","5f3227893ca51916b4ff6d9d_20240207","","","","4","6","1524",""
"3262","0","html-button-response","148","1400857","0.0-147.0","5f3227893ca51916b4ff6d9d","5f3227893ca51916b4ff6d9d_20240207","","","","5","4","598",""
"4669","0","html-button-response","149","1406042","0.0-148.0","5f3227893ca51916b4ff6d9d","5f3227893ca51916b4ff6d9d_20240207","","","","3","5","1202",""
"3710","0","html-button-response","150","1410265","0.0-149.0","5f3227893ca51916b4ff6d9d","5f3227893ca51916b4ff6d9d_20240207","","","","5","4","1833",""
"3318","0","html-button-response","151","1414098","0.0-150.0","5f3227893ca51916b4ff6d9d","5f3227893ca51916b4ff6d9d_20240207","","","","4","5","305",""
"3037","0","html-button-response","152","1417642","0.0-151.0","5f3227893ca51916b4ff6d9d","5f3227893ca51916b4ff6d9d_20240207","","","","4","5","1237",""
"3260","0","html-button-response","153","1421417","0.0-152.0","5f3227893ca51916b4ff6d9d","5f3227893ca51916b4ff6d9d_20240207","","","","4","5","928",""
"2880","0","html-button-response","154","1424809","0.0-153.0","5f3227893ca51916b4ff6d9d","5f3227893ca51916b4ff6d9d_20240207","","","","4","5","587",""
"2501","0","html-button-response","155","1427826","0.0-154.0","5f3227893ca51916b4ff6d9d","5f3227893ca51916b4ff6d9d_20240207","","","","4","5","651",""
"4971","0","html-button-response","156","1433307","0.0-155.0","5f3227893ca51916b4ff6d9d","5f3227893ca51916b4ff6d9d_20240207","","","","5","1","533",""
"3399","0","html-button-response","157","1437210","0.0-156.0","5f3227893ca51916b4ff6d9d","5f3227893ca51916b4ff6d9d_20240207","","","","5","1","1534",""
"2143","0","html-button-response","158","1439858","0.0-157.0","5f3227893ca51916b4ff6d9d","5f3227893ca51916b4ff6d9d_20240207","","","","5","1","1742",""
"2672","0","html-button-response","159","1443034","0.0-158.0","5f3227893ca51916b4ff6d9d","5f3227893ca51916b4ff6d9d_20240207","","","","5","2","1142",""
"2659","0","html-button-response","160","1446201","0.0-159.0","5f3227893ca51916b4ff6d9d","5f3227893ca51916b4ff6d9d_20240207","","","","5","1","858",""
"2940","0","html-button-response","161","1449650","0.0-160.0","5f3227893ca51916b4ff6d9d","5f3227893ca51916b4ff6d9d_20240207","","","","3","5","1960",""
"2623","0","html-button-response","162","1452778","0.0-161.0","5f3227893ca51916b4ff6d9d","5f3227893ca51916b4ff6d9d_20240207","","","","3","5","1626",""
"2264","0","html-button-response","163","1455553","0.0-162.0","5f3227893ca51916b4ff6d9d","5f3227893ca51916b4ff6d9d_20240207","","","","3","5","574",""
"2256","0","html-button-response","164","1458322","0.0-163.0","5f3227893ca51916b4ff6d9d","5f3227893ca51916b4ff6d9d_20240207","","","","3","5","34",""
"2563","0","html-button-response","165","1461393","0.0-164.0","5f3227893ca51916b4ff6d9d","5f3227893ca51916b4ff6d9d_20240207","","","","2","5","173",""
"3231","0","html-button-response","166","1465130","0.0-165.0","5f3227893ca51916b4ff6d9d","5f3227893ca51916b4ff6d9d_20240207","","","","5","2","1378",""
"3657","0","html-button-response","167","1469298","0.0-166.0","5f3227893ca51916b4ff6d9d","5f3227893ca51916b4ff6d9d_20240207","","","","5","5","844",""
"2866","0","html-button-response","168","1472673","0.0-167.0","5f3227893ca51916b4ff6d9d","5f3227893ca51916b4ff6d9d_20240207","","","","4","5","2196",""
"2545","0","html-button-response","169","1475729","0.0-168.0","5f3227893ca51916b4ff6d9d","5f3227893ca51916b4ff6d9d_20240207","","","","5","5","1867",""
"2200","0","html-button-response","170","1478433","0.0-169.0","5f3227893ca51916b4ff6d9d","5f3227893ca51916b4ff6d9d_20240207","","","","5","5","1486",""
"2867","0","html-button-response","171","1481809","0.0-170.0","5f3227893ca51916b4ff6d9d","5f3227893ca51916b4ff6d9d_20240207","","","","5","4","1469",""
"2828","0","html-button-response","172","1485145","0.0-171.0","5f3227893ca51916b4ff6d9d","5f3227893ca51916b4ff6d9d_20240207","","","","5","5","1120",""
"3456","0","html-button-response","173","1489105","0.0-172.0","5f3227893ca51916b4ff6d9d","5f3227893ca51916b4ff6d9d_20240207","","","","5","5","1166",""
"1712","0","html-button-response","174","1491322","0.0-173.0","5f3227893ca51916b4ff6d9d","5f3227893ca51916b4ff6d9d_20240207","","","","5","5","1148",""
"2236","0","html-button-response","175","1494073","0.0-174.0","5f3227893ca51916b4ff6d9d","5f3227893ca51916b4ff6d9d_20240207","","","","5","5","1316",""
"2353","0","html-button-response","176","1496929","0.0-175.0","5f3227893ca51916b4ff6d9d","5f3227893ca51916b4ff6d9d_20240207","","","","5","5","1842",""
"2393","0","html-button-response","177","1499826","0.0-176.0","5f3227893ca51916b4ff6d9d","5f3227893ca51916b4ff6d9d_20240207","","","","5","5","814",""
"3109","0","html-button-response","178","1503442","0.0-177.0","5f3227893ca51916b4ff6d9d","5f3227893ca51916b4ff6d9d_20240207","","","","2","5","276",""
"2122","0","html-button-response","179","1506065","0.0-178.0","5f3227893ca51916b4ff6d9d","5f3227893ca51916b4ff6d9d_20240207","","","","3","5","550",""
"4704","0","html-button-response","180","1511274","0.0-179.0","5f3227893ca51916b4ff6d9d","5f3227893ca51916b4ff6d9d_20240207","","","","4","5","1539",""
"3208","0","html-button-response","181","1514994","0.0-180.0","5f3227893ca51916b4ff6d9d","5f3227893ca51916b4ff6d9d_20240207","","","","5","3","91",""
"2230","0","html-button-response","182","1517737","0.0-181.0","5f3227893ca51916b4ff6d9d","5f3227893ca51916b4ff6d9d_20240207","","","","5","5","1330",""
"3404","0","html-button-response","183","1521649","0.0-182.0","5f3227893ca51916b4ff6d9d","5f3227893ca51916b4ff6d9d_20240207","","","","5","4","149",""
"3582","0","html-button-response","184","1525738","0.0-183.0","5f3227893ca51916b4ff6d9d","5f3227893ca51916b4ff6d9d_20240207","","","","4","5","1678",""
"2234","0","html-button-response","185","1528481","0.0-184.0","5f3227893ca51916b4ff6d9d","5f3227893ca51916b4ff6d9d_20240207","","","","5","2","1415",""
"2206","0","html-button-response","186","1531194","0.0-185.0","5f3227893ca51916b4ff6d9d","5f3227893ca51916b4ff6d9d_20240207","","","","3","5","44",""
"2807","0","html-button-response","187","1534514","0.0-186.0","5f3227893ca51916b4ff6d9d","5f3227893ca51916b4ff6d9d_20240207","","","","4","6","1538",""
"4437","0","html-button-response","188","1539457","0.0-187.0","5f3227893ca51916b4ff6d9d","5f3227893ca51916b4ff6d9d_20240207","","","","4","4","1059",""
"2422","0","html-button-response","189","1542393","0.0-188.0","5f3227893ca51916b4ff6d9d","5f3227893ca51916b4ff6d9d_20240207","","","","5","5","1162",""
"347293","0","html-button-response","190","1890200","0.0-189.0","5f3227893ca51916b4ff6d9d","5f3227893ca51916b4ff6d9d_20240207","","","","4","5","1575",""
"2410","0","html-button-response","191","1893112","0.0-190.0","5f3227893ca51916b4ff6d9d","5f3227893ca51916b4ff6d9d_20240207","","","","5","3","583",""
"3112","0","html-button-response","192","1896736","0.0-191.0","5f3227893ca51916b4ff6d9d","5f3227893ca51916b4ff6d9d_20240207","","","","5","2","1583",""
"2935","0","html-button-response","193","1900177","0.0-192.0","5f3227893ca51916b4ff6d9d","5f3227893ca51916b4ff6d9d_20240207","","","","2","5","2191",""
"4720","0","html-button-response","194","1905408","0.0-193.0","5f3227893ca51916b4ff6d9d","5f3227893ca51916b4ff6d9d_20240207","","","","6","5","1030",""
"2597","0","html-button-response","195","1908512","0.0-194.0","5f3227893ca51916b4ff6d9d","5f3227893ca51916b4ff6d9d_20240207","","","","6","2","1922",""
"2124","0","html-button-response","196","1911153","0.0-195.0","5f3227893ca51916b4ff6d9d","5f3227893ca51916b4ff6d9d_20240207","","","","3","5","670",""
"3077","0","html-button-response","197","1914745","0.0-196.0","5f3227893ca51916b4ff6d9d","5f3227893ca51916b4ff6d9d_20240207","","","","6","5","109",""
"3770","0","html-button-response","198","1919025","0.0-197.0","5f3227893ca51916b4ff6d9d","5f3227893ca51916b4ff6d9d_20240207","","","","6","5","876",""
"2247","0","html-button-response","199","1921784","0.0-198.0","5f3227893ca51916b4ff6d9d","5f3227893ca51916b4ff6d9d_20240207","","","","6","5","8",""
"2393","0","html-button-response","200","1924681","0.0-199.0","5f3227893ca51916b4ff6d9d","5f3227893ca51916b4ff6d9d_20240207","","","","5","2","1259",""
"2983","0","html-button-response","201","1928177","0.0-200.0","5f3227893ca51916b4ff6d9d","5f3227893ca51916b4ff6d9d_20240207","","","","5","4","162",""
"2691","0","html-button-response","202","1931376","0.0-201.0","5f3227893ca51916b4ff6d9d","5f3227893ca51916b4ff6d9d_20240207","","","","5","4","245",""
"2381","0","html-button-response","203","1934273","0.0-202.0","5f3227893ca51916b4ff6d9d","5f3227893ca51916b4ff6d9d_20240207","","","","5","5","1658",""
"2008","0","html-button-response","204","1936792","0.0-203.0","5f3227893ca51916b4ff6d9d","5f3227893ca51916b4ff6d9d_20240207","","","","5","5","1810",""
"1922","0","html-button-response","205","1939217","0.0-204.0","5f3227893ca51916b4ff6d9d","5f3227893ca51916b4ff6d9d_20240207","","","","5","5","460",""
"2298","0","html-button-response","206","1942025","0.0-205.0","5f3227893ca51916b4ff6d9d","5f3227893ca51916b4ff6d9d_20240207","","","","3","5","1006",""
"2879","0","html-button-response","207","1945416","0.0-206.0","5f3227893ca51916b4ff6d9d","5f3227893ca51916b4ff6d9d_20240207","","","","5","2","962",""
"2838","0","html-button-response","208","1948769","0.0-207.0","5f3227893ca51916b4ff6d9d","5f3227893ca51916b4ff6d9d_20240207","","","","5","2","1649",""
"2120","0","html-button-response","209","1951393","0.0-208.0","5f3227893ca51916b4ff6d9d","5f3227893ca51916b4ff6d9d_20240207","","","","5","2","2027",""
"4519","0","html-button-response","210","1956425","0.0-209.0","5f3227893ca51916b4ff6d9d","5f3227893ca51916b4ff6d9d_20240207","","","","7","5","522",""
"3532","0","html-button-response","211","1960458","0.0-210.0","5f3227893ca51916b4ff6d9d","5f3227893ca51916b4ff6d9d_20240207","","","","3","5","1139",""
"2755","0","html-button-response","212","1963721","0.0-211.0","5f3227893ca51916b4ff6d9d","5f3227893ca51916b4ff6d9d_20240207","","","","5","4","439",""
"1945","0","html-button-response","213","1966169","0.0-212.0","5f3227893ca51916b4ff6d9d","5f3227893ca51916b4ff6d9d_20240207","","","","5","3","585",""
"2174","0","html-button-response","214","1968849","0.0-213.0","5f3227893ca51916b4ff6d9d","5f3227893ca51916b4ff6d9d_20240207","","","","5","2","1365",""
"2242","0","html-button-response","215","1971593","0.0-214.0","5f3227893ca51916b4ff6d9d","5f3227893ca51916b4ff6d9d_20240207","","","","5","2","559",""
"2128","0","html-button-response","216","1974234","0.0-215.0","5f3227893ca51916b4ff6d9d","5f3227893ca51916b4ff6d9d_20240207","","","","6","5","554",""
"3874","0","html-button-response","217","1978618","0.0-216.0","5f3227893ca51916b4ff6d9d","5f3227893ca51916b4ff6d9d_20240207","","","","2","5","1345",""
"2465","0","html-button-response","218","1981593","0.0-217.0","5f3227893ca51916b4ff6d9d","5f3227893ca51916b4ff6d9d_20240207","","","","5","4","674",""
"2332","0","html-button-response","219","1984441","0.0-218.0","5f3227893ca51916b4ff6d9d","5f3227893ca51916b4ff6d9d_20240207","","","","5","3","1244",""
"7359","0","html-button-response","220","1992305","0.0-219.0","5f3227893ca51916b4ff6d9d","5f3227893ca51916b4ff6d9d_20240207","","","","2","5","2138",""
"2113","0","html-button-response","221","1994921","0.0-220.0","5f3227893ca51916b4ff6d9d","5f3227893ca51916b4ff6d9d_20240207","","","","6","5","37",""
"3001","0","html-button-response","222","1998426","0.0-221.0","5f3227893ca51916b4ff6d9d","5f3227893ca51916b4ff6d9d_20240207","","","","6","5","848",""
"2629","0","html-button-response","223","2001570","0.0-222.0","5f3227893ca51916b4ff6d9d","5f3227893ca51916b4ff6d9d_20240207","","","","5","2","388",""
"2681","0","html-button-response","224","2004753","0.0-223.0","5f3227893ca51916b4ff6d9d","5f3227893ca51916b4ff6d9d_20240207","","","","6","5","1239",""
"4284","0","html-button-response","225","2009553","0.0-224.0","5f3227893ca51916b4ff6d9d","5f3227893ca51916b4ff6d9d_20240207","","","","4","4","2130",""
"2144","0","html-button-response","226","2012210","0.0-225.0","5f3227893ca51916b4ff6d9d","5f3227893ca51916b4ff6d9d_20240207","","","Thank you. You have reached the end. 
                       <br>Click the button below to reveal your compensation.
                        <br><br>","","","","1569,1809,1806,784,1150,1737,985,288,1981,1639,2087,1584,884,1933,1795,1001,1216,95,669,1719,1732,1372,2099,1440,88,195,1127,132,1739,377,1108,758,1095,917,26,180,628,69,2188,1418,1849,128,1745,907,1499,1589,1785,404,751,613,2003,653,1448,1529,1880,310,1278,1567,1907,936,1285,421,1887,13,1411,131,1629,332,666,690,1835,298,551,1057,1956,1731,214,804,1231,60,676,774,1582,1106,1602,413,1622,1680,1063,36,1790,972,1854,1307,1660,1033,490,52,709,1019,1531,2059,1329,2165,99,322,919,480,420,1401,484,355,2100,1315,2071,1399,1341,223,997,390,1642,442,1638,1525,121,369,1613,30,321,1895,1829,788,384,2045,1421,597,1179,1087,2040,238,544,1524,598,1202,1833,305,1237,928,587,651,533,1534,1742,1142,858,1960,1626,574,34,173,1378,844,2196,1867,1486,1469,1120,1166,1148,1316,1842,814,276,550,1539,91,1330,149,1678,1415,44,1538,1059,1162,1575,583,1583,2191,1030,1922,670,109,876,8,1259,162,245,1658,1810,460,1006,962,1649,2027,522,1139,439,585,1365,559,554,1345,674,1244,2138,37,848,388,1239,2130"
