"rt","response","trial_type","trial_index","time_elapsed","internal_node_id","part_ID","ID_DATE","screen_id","understand_correct","stimulus","arousal","valence","img_id","tested_trial_idx"
"8986","0","html-button-response","0","8987","0.0-0.0","610060a76971cda108e8aa2b","610060a76971cda108e8aa2b_20240207","","","","","","",""
"4559","[object Object]","survey-html-form","1","14050","0.0-1.0","610060a76971cda108e8aa2b","610060a76971cda108e8aa2b_20240207","prolific_id_page","","","","","",""
"44669","0","html-button-response","2","58720","0.0-2.0","610060a76971cda108e8aa2b","610060a76971cda108e8aa2b_20240207","","","","","","",""
"26514","0","html-button-response","3","85735","0.0-3.0-0.0","610060a76971cda108e8aa2b","610060a76971cda108e8aa2b_20240207","","true","","","","",""
"16427","0","html-button-response","4","102668","0.0-4.0","610060a76971cda108e8aa2b","610060a76971cda108e8aa2b_20240207","","","
<div>
Great! You will now go on to rate the faces.
<br><br>
</div>
","","","",""
"6810","0","html-button-response","5","109985","0.0-5.0","610060a76971cda108e8aa2b","610060a76971cda108e8aa2b_20240207","","","","7","2","771",""
"4848","0","html-button-response","6","115335","0.0-6.0","610060a76971cda108e8aa2b","610060a76971cda108e8aa2b_20240207","","","","3","3","2024",""
"5079","0","html-button-response","7","120919","0.0-7.0","610060a76971cda108e8aa2b","610060a76971cda108e8aa2b_20240207","","","","8","7","96",""
"3077","0","html-button-response","8","124501","0.0-8.0","610060a76971cda108e8aa2b","610060a76971cda108e8aa2b_20240207","","","","5","5","1305",""
"5732","0","html-button-response","9","130736","0.0-9.0","610060a76971cda108e8aa2b","610060a76971cda108e8aa2b_20240207","","","","4","1","1792",""
"6478","0","html-button-response","10","137719","0.0-10.0","610060a76971cda108e8aa2b","610060a76971cda108e8aa2b_20240207","","","","9","6","31",""
"4530","0","html-button-response","11","142752","0.0-11.0","610060a76971cda108e8aa2b","610060a76971cda108e8aa2b_20240207","","","","4","2","1078",""
"4664","0","html-button-response","12","147918","0.0-12.0","610060a76971cda108e8aa2b","610060a76971cda108e8aa2b_20240207","","","","9","8","1865",""
"3582","0","html-button-response","13","152002","0.0-13.0","610060a76971cda108e8aa2b","610060a76971cda108e8aa2b_20240207","","","","8","6","731",""
"23933","0","html-button-response","14","176437","0.0-14.0","610060a76971cda108e8aa2b","610060a76971cda108e8aa2b_20240207","","","","7","2","182",""
"27348","0","html-button-response","15","204268","0.0-15.0","610060a76971cda108e8aa2b","610060a76971cda108e8aa2b_20240207","","","","7","9","1719",""
"3382","0","html-button-response","16","208150","0.0-16.0","610060a76971cda108e8aa2b","610060a76971cda108e8aa2b_20240207","","","","8","4","122",""
"2929","0","html-button-response","17","211579","0.0-17.0","610060a76971cda108e8aa2b","610060a76971cda108e8aa2b_20240207","","","","5","5","2009",""
"3247","0","html-button-response","18","215328","0.0-18.0","610060a76971cda108e8aa2b","610060a76971cda108e8aa2b_20240207","","","","4","2","1805",""
"3260","0","html-button-response","19","219091","0.0-19.0","610060a76971cda108e8aa2b","610060a76971cda108e8aa2b_20240207","","","","8","7","90",""
"6397","0","html-button-response","20","225989","0.0-20.0","610060a76971cda108e8aa2b","610060a76971cda108e8aa2b_20240207","","","","4","3","923",""
"3646","0","html-button-response","21","230137","0.0-21.0","610060a76971cda108e8aa2b","610060a76971cda108e8aa2b_20240207","","","","7","8","1367",""
"2549","0","html-button-response","22","233188","0.0-22.0","610060a76971cda108e8aa2b","610060a76971cda108e8aa2b_20240207","","","","7","6","898",""
"21363","0","html-button-response","23","255052","0.0-23.0","610060a76971cda108e8aa2b","610060a76971cda108e8aa2b_20240207","","","","7","6","120",""
"4934","0","html-button-response","24","260488","0.0-24.0","610060a76971cda108e8aa2b","610060a76971cda108e8aa2b_20240207","","","","4","3","1610",""
"5410","0","html-button-response","25","266401","0.0-25.0","610060a76971cda108e8aa2b","610060a76971cda108e8aa2b_20240207","","","","5","5","427",""
"9382","0","html-button-response","26","276284","0.0-26.0","610060a76971cda108e8aa2b","610060a76971cda108e8aa2b_20240207","","","","3","3","2131",""
"4228","0","html-button-response","27","281017","0.0-27.0","610060a76971cda108e8aa2b","610060a76971cda108e8aa2b_20240207","","","","3","7","1907",""
"7796","0","html-button-response","28","289316","0.0-28.0","610060a76971cda108e8aa2b","610060a76971cda108e8aa2b_20240207","","","","7","2","1364",""
"5896","0","html-button-response","29","295717","0.0-29.0","610060a76971cda108e8aa2b","610060a76971cda108e8aa2b_20240207","","","","3","3","319",""
"2015","0","html-button-response","30","298234","0.0-30.0","610060a76971cda108e8aa2b","610060a76971cda108e8aa2b_20240207","","","","6","7","1893",""
"3796","0","html-button-response","31","302534","0.0-31.0","610060a76971cda108e8aa2b","610060a76971cda108e8aa2b_20240207","","","","8","3","108",""
"2382","0","html-button-response","32","305418","0.0-32.0","610060a76971cda108e8aa2b","610060a76971cda108e8aa2b_20240207","","","","5","5","1003",""
"3446","0","html-button-response","33","309367","0.0-33.0","610060a76971cda108e8aa2b","610060a76971cda108e8aa2b_20240207","","","","7","6","554",""
"3480","0","html-button-response","34","313351","0.0-34.0","610060a76971cda108e8aa2b","610060a76971cda108e8aa2b_20240207","","","","9","5","1774",""
"5961","0","html-button-response","35","319818","0.0-35.0","610060a76971cda108e8aa2b","610060a76971cda108e8aa2b_20240207","","","","7","5","422",""
"13178","0","html-button-response","36","333502","0.0-36.0","610060a76971cda108e8aa2b","610060a76971cda108e8aa2b_20240207","","","","5","9","912",""
"2313","0","html-button-response","37","336317","0.0-37.0","610060a76971cda108e8aa2b","610060a76971cda108e8aa2b_20240207","","","","6","6","242",""
"3015","0","html-button-response","38","339834","0.0-38.0","610060a76971cda108e8aa2b","610060a76971cda108e8aa2b_20240207","","","","9","9","2048",""
"22900","0","html-button-response","39","363235","0.0-39.0","610060a76971cda108e8aa2b","610060a76971cda108e8aa2b_20240207","","","","7","4","590",""
"5663","0","html-button-response","40","369401","0.0-40.0","610060a76971cda108e8aa2b","610060a76971cda108e8aa2b_20240207","","","","3","3","1348",""
"6814","0","html-button-response","41","376718","0.0-41.0","610060a76971cda108e8aa2b","610060a76971cda108e8aa2b_20240207","","","","7","2","137",""
"4712","0","html-button-response","42","381934","0.0-42.0","610060a76971cda108e8aa2b","610060a76971cda108e8aa2b_20240207","","","","3","1","1257",""
"5111","0","html-button-response","43","387550","0.0-43.0","610060a76971cda108e8aa2b","610060a76971cda108e8aa2b_20240207","","","","7","6","84",""
"4198","0","html-button-response","44","392251","0.0-44.0","610060a76971cda108e8aa2b","610060a76971cda108e8aa2b_20240207","","","","5","5","246",""
"4529","0","html-button-response","45","397283","0.0-45.0","610060a76971cda108e8aa2b","610060a76971cda108e8aa2b_20240207","","","","4","3","1790",""
"4664","0","html-button-response","46","402451","0.0-46.0","610060a76971cda108e8aa2b","610060a76971cda108e8aa2b_20240207","","","","4","6","104",""
"2162","0","html-button-response","47","405117","0.0-47.0","610060a76971cda108e8aa2b","610060a76971cda108e8aa2b_20240207","","","","5","5","1113",""
"4780","0","html-button-response","48","410399","0.0-48.0","610060a76971cda108e8aa2b","610060a76971cda108e8aa2b_20240207","","","","3","3","832",""
"3730","0","html-button-response","49","414634","0.0-49.0","610060a76971cda108e8aa2b","610060a76971cda108e8aa2b_20240207","","","","1","1","1727",""
"6864","0","html-button-response","50","422000","0.0-50.0","610060a76971cda108e8aa2b","610060a76971cda108e8aa2b_20240207","","","","6","3","63",""
"15532","0","html-button-response","51","438034","0.0-51.0","610060a76971cda108e8aa2b","610060a76971cda108e8aa2b_20240207","","","","8","4","46",""
"3113","0","html-button-response","52","441650","0.0-52.0","610060a76971cda108e8aa2b","610060a76971cda108e8aa2b_20240207","","","","7","7","1093",""
"7196","0","html-button-response","53","449350","0.0-53.0","610060a76971cda108e8aa2b","610060a76971cda108e8aa2b_20240207","","","","6","8","1254",""
"2997","0","html-button-response","54","452850","0.0-54.0","610060a76971cda108e8aa2b","610060a76971cda108e8aa2b_20240207","","","","7","7","875",""
"3613","0","html-button-response","55","456967","0.0-55.0","610060a76971cda108e8aa2b","610060a76971cda108e8aa2b_20240207","","","","5","9","2097",""
"3179","0","html-button-response","56","460651","0.0-56.0","610060a76971cda108e8aa2b","610060a76971cda108e8aa2b_20240207","","","","5","5","989",""
"9094","0","html-button-response","57","470250","0.0-57.0","610060a76971cda108e8aa2b","610060a76971cda108e8aa2b_20240207","","","","5","5","1179",""
"3632","0","html-button-response","58","474384","0.0-58.0","610060a76971cda108e8aa2b","610060a76971cda108e8aa2b_20240207","","","","5","3","305",""
"2529","0","html-button-response","59","477417","0.0-59.0","610060a76971cda108e8aa2b","610060a76971cda108e8aa2b_20240207","","","","2","2","962",""
"3296","0","html-button-response","60","481217","0.0-60.0","610060a76971cda108e8aa2b","610060a76971cda108e8aa2b_20240207","","","","5","1","1791",""
"3531","0","html-button-response","61","485250","0.0-61.0","610060a76971cda108e8aa2b","610060a76971cda108e8aa2b_20240207","","","","9","9","1200",""
"3462","0","html-button-response","62","489218","0.0-62.0","610060a76971cda108e8aa2b","610060a76971cda108e8aa2b_20240207","","","","5","5","492",""
"2026","0","html-button-response","63","491750","0.0-63.0","610060a76971cda108e8aa2b","610060a76971cda108e8aa2b_20240207","","","","6","7","379",""
"3281","0","html-button-response","64","495533","0.0-64.0","610060a76971cda108e8aa2b","610060a76971cda108e8aa2b_20240207","","","","3","2","922",""
"4263","0","html-button-response","65","500300","0.0-65.0","610060a76971cda108e8aa2b","610060a76971cda108e8aa2b_20240207","","","","5","9","2086",""
"13030","0","html-button-response","66","513832","0.0-66.0","610060a76971cda108e8aa2b","610060a76971cda108e8aa2b_20240207","","","","5","3","1663",""
"5280","0","html-button-response","67","519619","0.0-67.0","610060a76971cda108e8aa2b","610060a76971cda108e8aa2b_20240207","","","","5","1","1921",""
"7377","0","html-button-response","68","527500","0.0-68.0","610060a76971cda108e8aa2b","610060a76971cda108e8aa2b_20240207","","","","5","5","272",""
"3630","0","html-button-response","69","531633","0.0-69.0","610060a76971cda108e8aa2b","610060a76971cda108e8aa2b_20240207","","","","3","2","1624",""
"14662","0","html-button-response","70","546799","0.0-70.0","610060a76971cda108e8aa2b","610060a76971cda108e8aa2b_20240207","","","","5","5","1847",""
"9681","0","html-button-response","71","556984","0.0-71.0","610060a76971cda108e8aa2b","610060a76971cda108e8aa2b_20240207","","","","7","5","951",""
"4550","0","html-button-response","72","562035","0.0-72.0","610060a76971cda108e8aa2b","610060a76971cda108e8aa2b_20240207","","","","7","5","230",""
"2280","0","html-button-response","73","564817","0.0-73.0","610060a76971cda108e8aa2b","610060a76971cda108e8aa2b_20240207","","","","5","5","2021",""
"17048","0","html-button-response","74","582368","0.0-74.0","610060a76971cda108e8aa2b","610060a76971cda108e8aa2b_20240207","","","","5","3","1157",""
"27615","0","html-button-response","75","610483","0.0-75.0","610060a76971cda108e8aa2b","610060a76971cda108e8aa2b_20240207","","","","6","6","117",""
"3019","0","html-button-response","76","614005","0.0-76.0","610060a76971cda108e8aa2b","610060a76971cda108e8aa2b_20240207","","","","5","9","1410",""
"24126","0","html-button-response","77","638633","0.0-77.0","610060a76971cda108e8aa2b","610060a76971cda108e8aa2b_20240207","","","","6","1","1023",""
"13899","0","html-button-response","78","653033","0.0-78.0","610060a76971cda108e8aa2b","610060a76971cda108e8aa2b_20240207","","","","8","5","759",""
"8381","0","html-button-response","79","661916","0.0-79.0","610060a76971cda108e8aa2b","610060a76971cda108e8aa2b_20240207","","","","7","1","559",""
"16062","0","html-button-response","80","678483","0.0-80.0","610060a76971cda108e8aa2b","610060a76971cda108e8aa2b_20240207","","","","8","6","199",""
"17784","0","html-button-response","81","696769","0.0-81.0","610060a76971cda108e8aa2b","610060a76971cda108e8aa2b_20240207","","","","5","5","651",""
"4193","0","html-button-response","82","701466","0.0-82.0","610060a76971cda108e8aa2b","610060a76971cda108e8aa2b_20240207","","","","4","2","961",""
"11614","0","html-button-response","83","713583","0.0-83.0","610060a76971cda108e8aa2b","610060a76971cda108e8aa2b_20240207","","","","7","6","393",""
"38516","0","html-button-response","84","752599","0.0-84.0","610060a76971cda108e8aa2b","610060a76971cda108e8aa2b_20240207","","","","3","1","2038",""
"5929","0","html-button-response","85","759032","0.0-85.0","610060a76971cda108e8aa2b","610060a76971cda108e8aa2b_20240207","","","","5","6","1119",""
"2983","0","html-button-response","86","762519","0.0-86.0","610060a76971cda108e8aa2b","610060a76971cda108e8aa2b_20240207","","","","9","9","1696",""
"3127","0","html-button-response","87","766150","0.0-87.0","610060a76971cda108e8aa2b","610060a76971cda108e8aa2b_20240207","","","","5","6","1615",""
"2811","0","html-button-response","88","769466","0.0-88.0","610060a76971cda108e8aa2b","610060a76971cda108e8aa2b_20240207","","","","5","5","1329",""
"2530","0","html-button-response","89","772499","0.0-89.0","610060a76971cda108e8aa2b","610060a76971cda108e8aa2b_20240207","","","","5","6","1085",""
"4697","0","html-button-response","90","777699","0.0-90.0","610060a76971cda108e8aa2b","610060a76971cda108e8aa2b_20240207","","","","4","3","1831",""
"3897","0","html-button-response","91","782099","0.0-91.0","610060a76971cda108e8aa2b","610060a76971cda108e8aa2b_20240207","","","","5","5","836",""
"33950","0","html-button-response","92","816550","0.0-92.0","610060a76971cda108e8aa2b","610060a76971cda108e8aa2b_20240207","","","","9","9","1878",""
"20262","0","html-button-response","93","837316","0.0-93.0","610060a76971cda108e8aa2b","610060a76971cda108e8aa2b_20240207","","","","9","9","1184",""
"6649","0","html-button-response","94","844466","0.0-94.0","610060a76971cda108e8aa2b","610060a76971cda108e8aa2b_20240207","","","","8","7","48",""
"4015","0","html-button-response","95","848983","0.0-95.0","610060a76971cda108e8aa2b","610060a76971cda108e8aa2b_20240207","","","","7","9","1891",""
"3264","0","html-button-response","96","852749","0.0-96.0","610060a76971cda108e8aa2b","610060a76971cda108e8aa2b_20240207","","","","4","3","905",""
"2682","0","html-button-response","97","855935","0.0-97.0","610060a76971cda108e8aa2b","610060a76971cda108e8aa2b_20240207","","","","6","1","883",""
"15376","0","html-button-response","98","871816","0.0-98.0","610060a76971cda108e8aa2b","610060a76971cda108e8aa2b_20240207","","","","7","5","445",""
"10328","0","html-button-response","99","882649","0.0-99.0","610060a76971cda108e8aa2b","610060a76971cda108e8aa2b_20240207","","","","4","2","1426",""
"5079","0","html-button-response","100","888232","0.0-100.0","610060a76971cda108e8aa2b","610060a76971cda108e8aa2b_20240207","","","","9","4","859",""
"2450","0","html-button-response","101","891184","0.0-101.0","610060a76971cda108e8aa2b","610060a76971cda108e8aa2b_20240207","","","","5","5","1502",""
"3281","0","html-button-response","102","894968","0.0-102.0","610060a76971cda108e8aa2b","610060a76971cda108e8aa2b_20240207","","","","5","6","260",""
"6195","0","html-button-response","103","901667","0.0-103.0","610060a76971cda108e8aa2b","610060a76971cda108e8aa2b_20240207","","","","5","5","1505",""
"2447","0","html-button-response","104","904616","0.0-104.0","610060a76971cda108e8aa2b","610060a76971cda108e8aa2b_20240207","","","","5","5","845",""
"3714","0","html-button-response","105","908831","0.0-105.0","610060a76971cda108e8aa2b","610060a76971cda108e8aa2b_20240207","","","","5","3","1844",""
"2279","0","html-button-response","106","911614","0.0-106.0","610060a76971cda108e8aa2b","610060a76971cda108e8aa2b_20240207","","","","5","3","1494",""
"7847","0","html-button-response","107","919964","0.0-107.0","610060a76971cda108e8aa2b","610060a76971cda108e8aa2b_20240207","","","","7","7","86",""
"11332","0","html-button-response","108","931800","0.0-108.0","610060a76971cda108e8aa2b","610060a76971cda108e8aa2b_20240207","","","","5","2","1586",""
"2960","0","html-button-response","109","935266","0.0-109.0","610060a76971cda108e8aa2b","610060a76971cda108e8aa2b_20240207","","","","5","5","1487",""
"5861","0","html-button-response","110","941633","0.0-110.0","610060a76971cda108e8aa2b","610060a76971cda108e8aa2b_20240207","","","","8","6","1223",""
"14013","0","html-button-response","111","956149","0.0-111.0","610060a76971cda108e8aa2b","610060a76971cda108e8aa2b_20240207","","","","5","5","2020",""
"3595","0","html-button-response","112","960248","0.0-112.0","610060a76971cda108e8aa2b","610060a76971cda108e8aa2b_20240207","","","","5","3","648",""
"4282","0","html-button-response","113","965035","0.0-113.0","610060a76971cda108e8aa2b","610060a76971cda108e8aa2b_20240207","","","","7","4","198",""
"22814","0","html-button-response","114","988350","0.0-114.0","610060a76971cda108e8aa2b","610060a76971cda108e8aa2b_20240207","","","","7","9","1357",""
"2680","0","html-button-response","115","991532","0.0-115.0","610060a76971cda108e8aa2b","610060a76971cda108e8aa2b_20240207","","","","9","9","1185",""
"27530","0","html-button-response","116","1019565","0.0-116.0","610060a76971cda108e8aa2b","610060a76971cda108e8aa2b_20240207","","","","8","5","794",""
"2728","0","html-button-response","117","1022798","0.0-117.0","610060a76971cda108e8aa2b","610060a76971cda108e8aa2b_20240207","","","","2","5","116",""
"21012","0","html-button-response","118","1044315","0.0-118.0","610060a76971cda108e8aa2b","610060a76971cda108e8aa2b_20240207","","","","8","1","1208",""
"11180","0","html-button-response","119","1055998","0.0-119.0","610060a76971cda108e8aa2b","610060a76971cda108e8aa2b_20240207","","","","5","3","1130",""
"9180","0","html-button-response","120","1065683","0.0-120.0","610060a76971cda108e8aa2b","610060a76971cda108e8aa2b_20240207","","","","8","6","551",""
"10348","0","html-button-response","121","1076533","0.0-121.0","610060a76971cda108e8aa2b","610060a76971cda108e8aa2b_20240207","","","","6","8","1749",""
"7226","0","html-button-response","122","1084264","0.0-122.0","610060a76971cda108e8aa2b","610060a76971cda108e8aa2b_20240207","","","","5","6","465",""
"5663","0","html-button-response","123","1090431","0.0-123.0","610060a76971cda108e8aa2b","610060a76971cda108e8aa2b_20240207","","","","8","8","19",""
"6167","0","html-button-response","124","1097099","0.0-124.0","610060a76971cda108e8aa2b","610060a76971cda108e8aa2b_20240207","","","","7","5","232",""
"2264","0","html-button-response","125","1099865","0.0-125.0","610060a76971cda108e8aa2b","610060a76971cda108e8aa2b_20240207","","","","5","5","837",""
"1601","0","html-button-response","126","1101968","0.0-126.0","610060a76971cda108e8aa2b","610060a76971cda108e8aa2b_20240207","","","","5","5","979",""
"3611","0","html-button-response","127","1106081","0.0-127.0","610060a76971cda108e8aa2b","610060a76971cda108e8aa2b_20240207","","","","6","8","1926",""
"3549","0","html-button-response","128","1110132","0.0-128.0","610060a76971cda108e8aa2b","610060a76971cda108e8aa2b_20240207","","","","5","6","1485",""
"3163","0","html-button-response","129","1113799","0.0-129.0","610060a76971cda108e8aa2b","610060a76971cda108e8aa2b_20240207","","","","6","7","1613",""
"3430","0","html-button-response","130","1117730","0.0-130.0","610060a76971cda108e8aa2b","610060a76971cda108e8aa2b_20240207","","","","5","5","175",""
"1883","0","html-button-response","131","1120118","0.0-131.0","610060a76971cda108e8aa2b","610060a76971cda108e8aa2b_20240207","","","","6","7","758",""
"6210","0","html-button-response","132","1126833","0.0-132.0","610060a76971cda108e8aa2b","610060a76971cda108e8aa2b_20240207","","","","6","7","302",""
"11313","0","html-button-response","133","1138648","0.0-133.0","610060a76971cda108e8aa2b","610060a76971cda108e8aa2b_20240207","","","","5","5","812",""
"15249","0","html-button-response","134","1154399","0.0-134.0","610060a76971cda108e8aa2b","610060a76971cda108e8aa2b_20240207","","","","7","6","149",""
"2295","0","html-button-response","135","1157198","0.0-135.0","610060a76971cda108e8aa2b","610060a76971cda108e8aa2b_20240207","","","","5","5","968",""
"33914","0","html-button-response","136","1191614","0.0-136.0","610060a76971cda108e8aa2b","610060a76971cda108e8aa2b_20240207","","","","8","1","853",""
"4295","0","html-button-response","137","1196415","0.0-137.0","610060a76971cda108e8aa2b","610060a76971cda108e8aa2b_20240207","","","","5","4","2170",""
"5632","0","html-button-response","138","1202548","0.0-138.0","610060a76971cda108e8aa2b","610060a76971cda108e8aa2b_20240207","","","","5","5","1789",""
"14280","0","html-button-response","139","1217331","0.0-139.0","610060a76971cda108e8aa2b","610060a76971cda108e8aa2b_20240207","","","","5","5","1506",""
"6181","0","html-button-response","140","1224016","0.0-140.0","610060a76971cda108e8aa2b","610060a76971cda108e8aa2b_20240207","","","","7","6","69",""
"6629","0","html-button-response","141","1231148","0.0-141.0","610060a76971cda108e8aa2b","610060a76971cda108e8aa2b_20240207","","","","7","1","1193",""
"5078","0","html-button-response","142","1236730","0.0-142.0","610060a76971cda108e8aa2b","610060a76971cda108e8aa2b_20240207","","","","5","7","2133",""
"3896","0","html-button-response","143","1241131","0.0-143.0","610060a76971cda108e8aa2b","610060a76971cda108e8aa2b_20240207","","","","7","9","1526",""
"7547","0","html-button-response","144","1249181","0.0-144.0","610060a76971cda108e8aa2b","610060a76971cda108e8aa2b_20240207","","","","7","2","892",""
"10082","0","html-button-response","145","1259764","0.0-145.0","610060a76971cda108e8aa2b","610060a76971cda108e8aa2b_20240207","","","","6","2","1048",""
"9149","0","html-button-response","146","1269415","0.0-146.0","610060a76971cda108e8aa2b","610060a76971cda108e8aa2b_20240207","","","","8","6","524",""
"12894","0","html-button-response","147","1282814","0.0-147.0","610060a76971cda108e8aa2b","610060a76971cda108e8aa2b_20240207","","","","5","6","597",""
"3013","0","html-button-response","148","1286332","0.0-148.0","610060a76971cda108e8aa2b","610060a76971cda108e8aa2b_20240207","","","","8","8","1197",""
"7379","0","html-button-response","149","1294214","0.0-149.0","610060a76971cda108e8aa2b","610060a76971cda108e8aa2b_20240207","","","","8","6","345",""
"7563","0","html-button-response","150","1302280","0.0-150.0","610060a76971cda108e8aa2b","610060a76971cda108e8aa2b_20240207","","","","7","6","256",""
"2046","0","html-button-response","151","1304831","0.0-151.0","610060a76971cda108e8aa2b","610060a76971cda108e8aa2b_20240207","","","","4","4","1818",""
"2896","0","html-button-response","152","1308230","0.0-152.0","610060a76971cda108e8aa2b","610060a76971cda108e8aa2b_20240207","","","","7","1","1754",""
"5649","0","html-button-response","153","1314382","0.0-153.0","610060a76971cda108e8aa2b","610060a76971cda108e8aa2b_20240207","","","","7","7","247",""
"8829","0","html-button-response","154","1323713","0.0-154.0","610060a76971cda108e8aa2b","610060a76971cda108e8aa2b_20240207","","","","5","5","1801",""
"13931","0","html-button-response","155","1338146","0.0-155.0","610060a76971cda108e8aa2b","610060a76971cda108e8aa2b_20240207","","","","8","1","26",""
"3101","0","html-button-response","156","1341750","0.0-156.0","610060a76971cda108e8aa2b","610060a76971cda108e8aa2b_20240207","","","","5","5","1972",""
"12944","0","html-button-response","157","1355197","0.0-157.0","610060a76971cda108e8aa2b","610060a76971cda108e8aa2b_20240207","","","","7","8","1227",""
"24830","0","html-button-response","158","1380530","0.0-158.0","610060a76971cda108e8aa2b","610060a76971cda108e8aa2b_20240207","","","","6","2","1555",""
"26082","0","html-button-response","159","1407115","0.0-159.0","610060a76971cda108e8aa2b","610060a76971cda108e8aa2b_20240207","","","","4","2","1741",""
"7645","0","html-button-response","160","1415266","0.0-160.0","610060a76971cda108e8aa2b","610060a76971cda108e8aa2b_20240207","","","","5","5","2193",""
"10077","0","html-button-response","161","1425848","0.0-161.0","610060a76971cda108e8aa2b","610060a76971cda108e8aa2b_20240207","","","","5","6","2149",""
"14111","0","html-button-response","162","1440464","0.0-162.0","610060a76971cda108e8aa2b","610060a76971cda108e8aa2b_20240207","","","","6","6","929",""
"10213","0","html-button-response","163","1451180","0.0-163.0","610060a76971cda108e8aa2b","610060a76971cda108e8aa2b_20240207","","","","5","7","607",""
"16015","0","html-button-response","164","1467696","0.0-164.0","610060a76971cda108e8aa2b","610060a76971cda108e8aa2b_20240207","","","","6","1","1923",""
"15814","0","html-button-response","165","1484014","0.0-165.0","610060a76971cda108e8aa2b","610060a76971cda108e8aa2b_20240207","","","","6","2","1066",""
"19450","0","html-button-response","166","1503966","0.0-166.0","610060a76971cda108e8aa2b","610060a76971cda108e8aa2b_20240207","","","","5","2","1768",""
"5896","0","html-button-response","167","1510364","0.0-167.0","610060a76971cda108e8aa2b","610060a76971cda108e8aa2b_20240207","","","","6","9","1862",""
"4896","0","html-button-response","168","1515764","0.0-168.0","610060a76971cda108e8aa2b","610060a76971cda108e8aa2b_20240207","","","","5","5","505",""
"19396","0","html-button-response","169","1535662","0.0-169.0","610060a76971cda108e8aa2b","610060a76971cda108e8aa2b_20240207","","","","4","3","908",""
"8264","0","html-button-response","170","1544430","0.0-170.0","610060a76971cda108e8aa2b","610060a76971cda108e8aa2b_20240207","","","","5","6","1314",""
"9698","0","html-button-response","171","1554630","0.0-171.0","610060a76971cda108e8aa2b","610060a76971cda108e8aa2b_20240207","","","","7","6","92",""
"12916","0","html-button-response","172","1568049","0.0-172.0","610060a76971cda108e8aa2b","610060a76971cda108e8aa2b_20240207","","","","4","4","306",""
"7794","0","html-button-response","173","1576348","0.0-173.0","610060a76971cda108e8aa2b","610060a76971cda108e8aa2b_20240207","","","","5","7","760",""
"19163","0","html-button-response","174","1596015","0.0-174.0","610060a76971cda108e8aa2b","610060a76971cda108e8aa2b_20240207","","","","5","5","1514",""
"5629","0","html-button-response","175","1602145","0.0-175.0","610060a76971cda108e8aa2b","610060a76971cda108e8aa2b_20240207","","","","7","5","472",""
"9249","0","html-button-response","176","1611897","0.0-176.0","610060a76971cda108e8aa2b","610060a76971cda108e8aa2b_20240207","","","","6","5","203",""
"3580","0","html-button-response","177","1615980","0.0-177.0","610060a76971cda108e8aa2b","610060a76971cda108e8aa2b_20240207","","","","4","3","1989",""
"2361","0","html-button-response","178","1618845","0.0-178.0","610060a76971cda108e8aa2b","610060a76971cda108e8aa2b_20240207","","","","5","5","1631",""
"19049","0","html-button-response","179","1638397","0.0-179.0","610060a76971cda108e8aa2b","610060a76971cda108e8aa2b_20240207","","","","7","5","629",""
"14765","0","html-button-response","180","1653663","0.0-180.0","610060a76971cda108e8aa2b","610060a76971cda108e8aa2b_20240207","","","","5","2","1417",""
"4682","0","html-button-response","181","1658847","0.0-181.0","610060a76971cda108e8aa2b","610060a76971cda108e8aa2b_20240207","","","","5","6","776",""
"12548","0","html-button-response","182","1671898","0.0-182.0","610060a76971cda108e8aa2b","610060a76971cda108e8aa2b_20240207","","","","5","5","1607",""
"10546","0","html-button-response","183","1682947","0.0-183.0","610060a76971cda108e8aa2b","610060a76971cda108e8aa2b_20240207","","","","5","4","1858",""
"15880","0","html-button-response","184","1699329","0.0-184.0","610060a76971cda108e8aa2b","610060a76971cda108e8aa2b_20240207","","","","6","1","1556",""
"10649","0","html-button-response","185","1710482","0.0-185.0","610060a76971cda108e8aa2b","610060a76971cda108e8aa2b_20240207","","","","7","1","869",""
"48811","0","html-button-response","186","1759797","0.0-186.0","610060a76971cda108e8aa2b","610060a76971cda108e8aa2b_20240207","","","","7","1","1924",""
"63550","0","html-button-response","187","1823847","0.0-187.0","610060a76971cda108e8aa2b","610060a76971cda108e8aa2b_20240207","","","","5","5","958",""
"11314","0","html-button-response","188","1835666","0.0-188.0","610060a76971cda108e8aa2b","610060a76971cda108e8aa2b_20240207","","","","5","5","1620",""
"16595","0","html-button-response","189","1852763","0.0-189.0","610060a76971cda108e8aa2b","610060a76971cda108e8aa2b_20240207","","","","6","8","2087",""
"9097","0","html-button-response","190","1862363","0.0-190.0","610060a76971cda108e8aa2b","610060a76971cda108e8aa2b_20240207","","","","8","6","18",""
"39448","0","html-button-response","191","1902312","0.0-191.0","610060a76971cda108e8aa2b","610060a76971cda108e8aa2b_20240207","","","","8","6","534",""
"24034","0","html-button-response","192","1926847","0.0-192.0","610060a76971cda108e8aa2b","610060a76971cda108e8aa2b_20240207","","","","8","5","270",""
"6445","0","html-button-response","193","1933796","0.0-193.0","610060a76971cda108e8aa2b","610060a76971cda108e8aa2b_20240207","","","","9","3","23",""
"8514","0","html-button-response","194","1942812","0.0-194.0","610060a76971cda108e8aa2b","610060a76971cda108e8aa2b_20240207","","","","5","5","1512",""
"38898","0","html-button-response","195","1982212","0.0-195.0","610060a76971cda108e8aa2b","610060a76971cda108e8aa2b_20240207","","","","6","4","323",""
"9482","0","html-button-response","196","1992197","0.0-196.0","610060a76971cda108e8aa2b","610060a76971cda108e8aa2b_20240207","","","","6","7","937",""
"36296","0","html-button-response","197","2028995","0.0-197.0","610060a76971cda108e8aa2b","610060a76971cda108e8aa2b_20240207","","","","5","5","654",""
"6997","0","html-button-response","198","2036496","0.0-198.0","610060a76971cda108e8aa2b","610060a76971cda108e8aa2b_20240207","","","","5","7","2114",""
"5579","0","html-button-response","199","2042578","0.0-199.0","610060a76971cda108e8aa2b","610060a76971cda108e8aa2b_20240207","","","","5","3","1012",""
"4863","0","html-button-response","200","2047945","0.0-200.0","610060a76971cda108e8aa2b","610060a76971cda108e8aa2b_20240207","","","","6","7","1406",""
"9882","0","html-button-response","201","2058329","0.0-201.0","610060a76971cda108e8aa2b","610060a76971cda108e8aa2b_20240207","","","","8","6","8",""
"4083","0","html-button-response","202","2062915","0.0-202.0","610060a76971cda108e8aa2b","610060a76971cda108e8aa2b_20240207","","","","5","3","2158",""
"42510","0","html-button-response","203","2105928","0.0-203.0","610060a76971cda108e8aa2b","610060a76971cda108e8aa2b_20240207","","","","5","4","489",""
"7949","0","html-button-response","204","2114379","0.0-204.0","610060a76971cda108e8aa2b","610060a76971cda108e8aa2b_20240207","","","","6","5","942",""
"14431","0","html-button-response","205","2129312","0.0-205.0","610060a76971cda108e8aa2b","610060a76971cda108e8aa2b_20240207","","","","5","4","818",""
"10749","0","html-button-response","206","2140563","0.0-206.0","610060a76971cda108e8aa2b","610060a76971cda108e8aa2b_20240207","","","","8","6","224",""
"7030","0","html-button-response","207","2148095","0.0-207.0","610060a76971cda108e8aa2b","610060a76971cda108e8aa2b_20240207","","","","7","8","1019",""
"2263","0","html-button-response","208","2150863","0.0-208.0","610060a76971cda108e8aa2b","610060a76971cda108e8aa2b_20240207","","","","5","5","1618",""
"9766","0","html-button-response","209","2161130","0.0-209.0","610060a76971cda108e8aa2b","610060a76971cda108e8aa2b_20240207","","","","5","4","1660",""
"3129","0","html-button-response","210","2164762","0.0-210.0","610060a76971cda108e8aa2b","610060a76971cda108e8aa2b_20240207","","","","6","6","2136",""
"7249","0","html-button-response","211","2172514","0.0-211.0","610060a76971cda108e8aa2b","610060a76971cda108e8aa2b_20240207","","","","5","5","1293",""
"3742","0","html-button-response","212","2176762","0.0-212.0","610060a76971cda108e8aa2b","610060a76971cda108e8aa2b_20240207","","","","8","3","146",""
"5465","0","html-button-response","213","2182731","0.0-213.0","610060a76971cda108e8aa2b","610060a76971cda108e8aa2b_20240207","","","","5","5","1810",""
"5461","0","html-button-response","214","2188695","0.0-214.0","610060a76971cda108e8aa2b","610060a76971cda108e8aa2b_20240207","","","","5","5","1825",""
"3096","0","html-button-response","215","2192295","0.0-215.0","610060a76971cda108e8aa2b","610060a76971cda108e8aa2b_20240207","","","","8","6","107",""
"4048","0","html-button-response","216","2196846","0.0-216.0","610060a76971cda108e8aa2b","610060a76971cda108e8aa2b_20240207","","","","8","7","1041",""
"12831","0","html-button-response","217","2210179","0.0-217.0","610060a76971cda108e8aa2b","610060a76971cda108e8aa2b_20240207","","","","3","8","2075",""
"2614","0","html-button-response","218","2213296","0.0-218.0","610060a76971cda108e8aa2b","610060a76971cda108e8aa2b_20240207","","","","3","8","2147",""
"7880","0","html-button-response","219","2221678","0.0-219.0","610060a76971cda108e8aa2b","610060a76971cda108e8aa2b_20240207","","","","5","5","1146",""
"16847","0","html-button-response","220","2239027","0.0-220.0","610060a76971cda108e8aa2b","610060a76971cda108e8aa2b_20240207","","","","4","2","220",""
"8034","0","html-button-response","221","2247565","0.0-221.0","610060a76971cda108e8aa2b","610060a76971cda108e8aa2b_20240207","","","","5","3","1142",""
"10025","0","html-button-response","222","2258093","0.0-222.0","610060a76971cda108e8aa2b","610060a76971cda108e8aa2b_20240207","","","","4","2","480",""
"11133","0","html-button-response","223","2269728","0.0-223.0","610060a76971cda108e8aa2b","610060a76971cda108e8aa2b_20240207","","","","9","1","867",""
"3864","0","html-button-response","224","2274095","0.0-224.0","610060a76971cda108e8aa2b","610060a76971cda108e8aa2b_20240207","","","","6","9","1772",""
"2417","0","html-button-response","225","2277013","0.0-225.0","610060a76971cda108e8aa2b","610060a76971cda108e8aa2b_20240207","","","Thank you. You have reached the end. 
                       <br>Click the button below to reveal your compensation.
                        <br><br>","","","","771,2024,96,1305,1792,31,1078,1865,731,182,1719,122,2009,1805,90,923,1367,898,120,1610,427,2131,1907,1364,319,1893,108,1003,554,1774,422,912,242,2048,590,1348,137,1257,84,246,1790,104,1113,832,1727,63,46,1093,1254,875,2097,989,1179,305,962,1791,1200,492,379,922,2086,1663,1921,272,1624,1847,951,230,2021,1157,117,1410,1023,759,559,199,651,961,393,2038,1119,1696,1615,1329,1085,1831,836,1878,1184,48,1891,905,883,445,1426,859,1502,260,1505,845,1844,1494,86,1586,1487,1223,2020,648,198,1357,1185,794,116,1208,1130,551,1749,465,19,232,837,979,1926,1485,1613,175,758,302,812,149,968,853,2170,1789,1506,69,1193,2133,1526,892,1048,524,597,1197,345,256,1818,1754,247,1801,26,1972,1227,1555,1741,2193,2149,929,607,1923,1066,1768,1862,505,908,1314,92,306,760,1514,472,203,1989,1631,629,1417,776,1607,1858,1556,869,1924,958,1620,2087,18,534,270,23,1512,323,937,654,2114,1012,1406,8,2158,489,942,818,224,1019,1618,1660,2136,1293,146,1810,1825,107,1041,2075,2147,1146,220,1142,480,867,1772"
