"rt","response","trial_type","trial_index","time_elapsed","internal_node_id","part_ID","ID_DATE","screen_id","understand_correct","stimulus","arousal","valence","img_id","tested_trial_idx"
"6834","0","html-button-response","0","6836","0.0-0.0","5f8cbc5c355ea745e6cef2ca","5f8cbc5c355ea745e6cef2ca_20240207","","","","","","",""
"3116","[object Object]","survey-html-form","1","10463","0.0-1.0","5f8cbc5c355ea745e6cef2ca","5f8cbc5c355ea745e6cef2ca_20240207","prolific_id_page","","","","","",""
"148831","0","html-button-response","2","159294","0.0-2.0","5f8cbc5c355ea745e6cef2ca","5f8cbc5c355ea745e6cef2ca_20240207","","","","","","",""
"27610","0","html-button-response","3","187406","0.0-3.0-0.0","5f8cbc5c355ea745e6cef2ca","5f8cbc5c355ea745e6cef2ca_20240207","","true","","","","",""
"1090","0","html-button-response","4","188999","0.0-4.0","5f8cbc5c355ea745e6cef2ca","5f8cbc5c355ea745e6cef2ca_20240207","","","
<div>
Great! You will now go on to rate the faces.
<br><br>
</div>
","","","",""
"8291","0","html-button-response","5","197791","0.0-5.0","5f8cbc5c355ea745e6cef2ca","5f8cbc5c355ea745e6cef2ca_20240207","","","","4","4","580",""
"11724","0","html-button-response","6","210015","0.0-6.0","5f8cbc5c355ea745e6cef2ca","5f8cbc5c355ea745e6cef2ca_20240207","","","","4","3","2167",""
"6079","0","html-button-response","7","216595","0.0-7.0","5f8cbc5c355ea745e6cef2ca","5f8cbc5c355ea745e6cef2ca_20240207","","","","5","1","1911",""
"6940","0","html-button-response","8","224050","0.0-8.0","5f8cbc5c355ea745e6cef2ca","5f8cbc5c355ea745e6cef2ca_20240207","","","","6","9","2045",""
"5996","0","html-button-response","9","230554","0.0-9.0","5f8cbc5c355ea745e6cef2ca","5f8cbc5c355ea745e6cef2ca_20240207","","","","8","4","275",""
"6362","0","html-button-response","10","237420","0.0-10.0","5f8cbc5c355ea745e6cef2ca","5f8cbc5c355ea745e6cef2ca_20240207","","","","6","4","100",""
"5457","0","html-button-response","11","243379","0.0-11.0","5f8cbc5c355ea745e6cef2ca","5f8cbc5c355ea745e6cef2ca_20240207","","","","5","3","2036",""
"5895","0","html-button-response","12","249783","0.0-12.0","5f8cbc5c355ea745e6cef2ca","5f8cbc5c355ea745e6cef2ca_20240207","","","","4","4","1859",""
"6893","0","html-button-response","13","257184","0.0-13.0","5f8cbc5c355ea745e6cef2ca","5f8cbc5c355ea745e6cef2ca_20240207","","","","8","5","225",""
"2784","0","html-button-response","14","260478","0.0-14.0","5f8cbc5c355ea745e6cef2ca","5f8cbc5c355ea745e6cef2ca_20240207","","","","7","5","267",""
"3530","0","html-button-response","15","264512","0.0-15.0","5f8cbc5c355ea745e6cef2ca","5f8cbc5c355ea745e6cef2ca_20240207","","","","5","4","1157",""
"5705","0","html-button-response","16","270723","0.0-16.0","5f8cbc5c355ea745e6cef2ca","5f8cbc5c355ea745e6cef2ca_20240207","","","","4","4","312",""
"7319","0","html-button-response","17","278543","0.0-17.0","5f8cbc5c355ea745e6cef2ca","5f8cbc5c355ea745e6cef2ca_20240207","","","","5","3","884",""
"2826","0","html-button-response","18","281878","0.0-18.0","5f8cbc5c355ea745e6cef2ca","5f8cbc5c355ea745e6cef2ca_20240207","","","","6","5","99",""
"5528","0","html-button-response","19","287910","0.0-19.0","5f8cbc5c355ea745e6cef2ca","5f8cbc5c355ea745e6cef2ca_20240207","","","","4","5","750",""
"4812","0","html-button-response","20","293229","0.0-20.0","5f8cbc5c355ea745e6cef2ca","5f8cbc5c355ea745e6cef2ca_20240207","","","","4","4","141",""
"5709","0","html-button-response","21","299447","0.0-21.0","5f8cbc5c355ea745e6cef2ca","5f8cbc5c355ea745e6cef2ca_20240207","","","","6","9","1523",""
"2889","0","html-button-response","22","302842","0.0-22.0","5f8cbc5c355ea745e6cef2ca","5f8cbc5c355ea745e6cef2ca_20240207","","","","5","5","1127",""
"3114","0","html-button-response","23","306461","0.0-23.0","5f8cbc5c355ea745e6cef2ca","5f8cbc5c355ea745e6cef2ca_20240207","","","","5","5","1303",""
"6722","0","html-button-response","24","313694","0.0-24.0","5f8cbc5c355ea745e6cef2ca","5f8cbc5c355ea745e6cef2ca_20240207","","","","7","3","181",""
"8267","0","html-button-response","25","322464","0.0-25.0","5f8cbc5c355ea745e6cef2ca","5f8cbc5c355ea745e6cef2ca_20240207","","","","5","8","1370",""
"6220","0","html-button-response","26","329197","0.0-26.0","5f8cbc5c355ea745e6cef2ca","5f8cbc5c355ea745e6cef2ca_20240207","","","","4","5","307",""
"5962","0","html-button-response","27","335667","0.0-27.0","5f8cbc5c355ea745e6cef2ca","5f8cbc5c355ea745e6cef2ca_20240207","","","","3","4","2000",""
"2802","0","html-button-response","28","338981","0.0-28.0","5f8cbc5c355ea745e6cef2ca","5f8cbc5c355ea745e6cef2ca_20240207","","","","3","5","839",""
"4450","0","html-button-response","29","343938","0.0-29.0","5f8cbc5c355ea745e6cef2ca","5f8cbc5c355ea745e6cef2ca_20240207","","","","5","6","1591",""
"2295","0","html-button-response","30","346738","0.0-30.0","5f8cbc5c355ea745e6cef2ca","5f8cbc5c355ea745e6cef2ca_20240207","","","","5","5","1505",""
"8224","0","html-button-response","31","355464","0.0-31.0","5f8cbc5c355ea745e6cef2ca","5f8cbc5c355ea745e6cef2ca_20240207","","","","8","5","396",""
"4034","0","html-button-response","32","360003","0.0-32.0","5f8cbc5c355ea745e6cef2ca","5f8cbc5c355ea745e6cef2ca_20240207","","","","9","5","201",""
"5752","0","html-button-response","33","366264","0.0-33.0","5f8cbc5c355ea745e6cef2ca","5f8cbc5c355ea745e6cef2ca_20240207","","","","7","7","872",""
"5054","0","html-button-response","34","371833","0.0-34.0","5f8cbc5c355ea745e6cef2ca","5f8cbc5c355ea745e6cef2ca_20240207","","","","4","5","1005",""
"3885","0","html-button-response","35","376233","0.0-35.0","5f8cbc5c355ea745e6cef2ca","5f8cbc5c355ea745e6cef2ca_20240207","","","","6","3","1417",""
"5843","0","html-button-response","36","382582","0.0-36.0","5f8cbc5c355ea745e6cef2ca","5f8cbc5c355ea745e6cef2ca_20240207","","","","5","6","1918",""
"5649","0","html-button-response","37","388737","0.0-37.0","5f8cbc5c355ea745e6cef2ca","5f8cbc5c355ea745e6cef2ca_20240207","","","","6","3","1063",""
"6560","0","html-button-response","38","395813","0.0-38.0","5f8cbc5c355ea745e6cef2ca","5f8cbc5c355ea745e6cef2ca_20240207","","","","8","5","536",""
"2983","0","html-button-response","39","399297","0.0-39.0","5f8cbc5c355ea745e6cef2ca","5f8cbc5c355ea745e6cef2ca_20240207","","","","8","2","347",""
"5632","0","html-button-response","40","405430","0.0-40.0","5f8cbc5c355ea745e6cef2ca","5f8cbc5c355ea745e6cef2ca_20240207","","","","7","5","386",""
"4701","0","html-button-response","41","410632","0.0-41.0","5f8cbc5c355ea745e6cef2ca","5f8cbc5c355ea745e6cef2ca_20240207","","","","4","4","260",""
"3279","0","html-button-response","42","414413","0.0-42.0","5f8cbc5c355ea745e6cef2ca","5f8cbc5c355ea745e6cef2ca_20240207","","","","5","6","1252",""
"1886","0","html-button-response","43","416799","0.0-43.0","5f8cbc5c355ea745e6cef2ca","5f8cbc5c355ea745e6cef2ca_20240207","","","","5","5","1307",""
"3632","0","html-button-response","44","420933","0.0-44.0","5f8cbc5c355ea745e6cef2ca","5f8cbc5c355ea745e6cef2ca_20240207","","","","4","5","1646",""
"2664","0","html-button-response","45","424102","0.0-45.0","5f8cbc5c355ea745e6cef2ca","5f8cbc5c355ea745e6cef2ca_20240207","","","","5","5","1490",""
"5092","0","html-button-response","46","429699","0.0-46.0","5f8cbc5c355ea745e6cef2ca","5f8cbc5c355ea745e6cef2ca_20240207","","","","6","4","713",""
"3309","0","html-button-response","47","433520","0.0-47.0","5f8cbc5c355ea745e6cef2ca","5f8cbc5c355ea745e6cef2ca_20240207","","","","7","3","1245",""
"5898","0","html-button-response","48","439927","0.0-48.0","5f8cbc5c355ea745e6cef2ca","5f8cbc5c355ea745e6cef2ca_20240207","","","","8","6","510",""
"4353","0","html-button-response","49","444784","0.0-49.0","5f8cbc5c355ea745e6cef2ca","5f8cbc5c355ea745e6cef2ca_20240207","","","","5","2","754",""
"4766","0","html-button-response","50","450053","0.0-50.0","5f8cbc5c355ea745e6cef2ca","5f8cbc5c355ea745e6cef2ca_20240207","","","","3","5","964",""
"5513","0","html-button-response","51","456067","0.0-51.0","5f8cbc5c355ea745e6cef2ca","5f8cbc5c355ea745e6cef2ca_20240207","","","","7","5","34",""
"5158","0","html-button-response","52","461732","0.0-52.0","5f8cbc5c355ea745e6cef2ca","5f8cbc5c355ea745e6cef2ca_20240207","","","","5","4","1339",""
"2070","0","html-button-response","53","464309","0.0-53.0","5f8cbc5c355ea745e6cef2ca","5f8cbc5c355ea745e6cef2ca_20240207","","","","6","5","398",""
"3357","0","html-button-response","54","468170","0.0-54.0","5f8cbc5c355ea745e6cef2ca","5f8cbc5c355ea745e6cef2ca_20240207","","","","5","5","1457",""
"2177","0","html-button-response","55","470848","0.0-55.0","5f8cbc5c355ea745e6cef2ca","5f8cbc5c355ea745e6cef2ca_20240207","","","","5","9","2055",""
"5351","0","html-button-response","56","476704","0.0-56.0","5f8cbc5c355ea745e6cef2ca","5f8cbc5c355ea745e6cef2ca_20240207","","","","5","4","454",""
"3831","0","html-button-response","57","481037","0.0-57.0","5f8cbc5c355ea745e6cef2ca","5f8cbc5c355ea745e6cef2ca_20240207","","","","7","5","215",""
"2989","0","html-button-response","58","484529","0.0-58.0","5f8cbc5c355ea745e6cef2ca","5f8cbc5c355ea745e6cef2ca_20240207","","","","8","5","30",""
"2858","0","html-button-response","59","487894","0.0-59.0","5f8cbc5c355ea745e6cef2ca","5f8cbc5c355ea745e6cef2ca_20240207","","","","6","4","568",""
"2604","0","html-button-response","60","491005","0.0-60.0","5f8cbc5c355ea745e6cef2ca","5f8cbc5c355ea745e6cef2ca_20240207","","","","4","5","1113",""
"2361","0","html-button-response","61","493871","0.0-61.0","5f8cbc5c355ea745e6cef2ca","5f8cbc5c355ea745e6cef2ca_20240207","","","","5","5","1175",""
"1818","0","html-button-response","62","496190","0.0-62.0","5f8cbc5c355ea745e6cef2ca","5f8cbc5c355ea745e6cef2ca_20240207","","","","5","5","981",""
"4182","0","html-button-response","63","500875","0.0-63.0","5f8cbc5c355ea745e6cef2ca","5f8cbc5c355ea745e6cef2ca_20240207","","","","6","4","542",""
"3551","0","html-button-response","64","504937","0.0-64.0","5f8cbc5c355ea745e6cef2ca","5f8cbc5c355ea745e6cef2ca_20240207","","","","8","5","262",""
"4918","0","html-button-response","65","510364","0.0-65.0","5f8cbc5c355ea745e6cef2ca","5f8cbc5c355ea745e6cef2ca_20240207","","","","3","3","142",""
"6545","0","html-button-response","66","517414","0.0-66.0","5f8cbc5c355ea745e6cef2ca","5f8cbc5c355ea745e6cef2ca_20240207","","","","6","5","112",""
"7079","0","html-button-response","67","525004","0.0-67.0","5f8cbc5c355ea745e6cef2ca","5f8cbc5c355ea745e6cef2ca_20240207","","","","8","2","1363",""
"2170","0","html-button-response","68","527689","0.0-68.0","5f8cbc5c355ea745e6cef2ca","5f8cbc5c355ea745e6cef2ca_20240207","","","","7","3","1391",""
"2357","0","html-button-response","69","530550","0.0-69.0","5f8cbc5c355ea745e6cef2ca","5f8cbc5c355ea745e6cef2ca_20240207","","","","5","4","624",""
"2621","0","html-button-response","70","533675","0.0-70.0","5f8cbc5c355ea745e6cef2ca","5f8cbc5c355ea745e6cef2ca_20240207","","","","5","5","1290",""
"4073","0","html-button-response","71","538251","0.0-71.0","5f8cbc5c355ea745e6cef2ca","5f8cbc5c355ea745e6cef2ca_20240207","","","","5","9","2042",""
"1918","0","html-button-response","72","540682","0.0-72.0","5f8cbc5c355ea745e6cef2ca","5f8cbc5c355ea745e6cef2ca_20240207","","","","5","5","1971",""
"2728","0","html-button-response","73","543911","0.0-73.0","5f8cbc5c355ea745e6cef2ca","5f8cbc5c355ea745e6cef2ca_20240207","","","","5","5","1267",""
"2143","0","html-button-response","74","546562","0.0-74.0","5f8cbc5c355ea745e6cef2ca","5f8cbc5c355ea745e6cef2ca_20240207","","","","5","5","1310",""
"2110","0","html-button-response","75","549178","0.0-75.0","5f8cbc5c355ea745e6cef2ca","5f8cbc5c355ea745e6cef2ca_20240207","","","","5","5","1979",""
"1800","0","html-button-response","76","551494","0.0-76.0","5f8cbc5c355ea745e6cef2ca","5f8cbc5c355ea745e6cef2ca_20240207","","","","5","5","1471",""
"2332","0","html-button-response","77","554330","0.0-77.0","5f8cbc5c355ea745e6cef2ca","5f8cbc5c355ea745e6cef2ca_20240207","","","","5","7","1579",""
"28443","0","html-button-response","78","583276","0.0-78.0","5f8cbc5c355ea745e6cef2ca","5f8cbc5c355ea745e6cef2ca_20240207","","","","6","5","911",""
"3410","0","html-button-response","79","587187","0.0-79.0","5f8cbc5c355ea745e6cef2ca","5f8cbc5c355ea745e6cef2ca_20240207","","","","4","4","1844",""
"2540","0","html-button-response","80","590238","0.0-80.0","5f8cbc5c355ea745e6cef2ca","5f8cbc5c355ea745e6cef2ca_20240207","","","","5","6","1774",""
"6465","0","html-button-response","81","597209","0.0-81.0","5f8cbc5c355ea745e6cef2ca","5f8cbc5c355ea745e6cef2ca_20240207","","","","8","6","705",""
"1824","0","html-button-response","82","599538","0.0-82.0","5f8cbc5c355ea745e6cef2ca","5f8cbc5c355ea745e6cef2ca_20240207","","","","5","5","1828",""
"3968","0","html-button-response","83","604008","0.0-83.0","5f8cbc5c355ea745e6cef2ca","5f8cbc5c355ea745e6cef2ca_20240207","","","","5","8","1706",""
"2655","0","html-button-response","84","607166","0.0-84.0","5f8cbc5c355ea745e6cef2ca","5f8cbc5c355ea745e6cef2ca_20240207","","","","5","5","1816",""
"2535","0","html-button-response","85","610204","0.0-85.0","5f8cbc5c355ea745e6cef2ca","5f8cbc5c355ea745e6cef2ca_20240207","","","","8","5","196",""
"2926","0","html-button-response","86","613636","0.0-86.0","5f8cbc5c355ea745e6cef2ca","5f8cbc5c355ea745e6cef2ca_20240207","","","","7","3","1216",""
"2186","0","html-button-response","87","616335","0.0-87.0","5f8cbc5c355ea745e6cef2ca","5f8cbc5c355ea745e6cef2ca_20240207","","","","5","9","1717",""
"4920","0","html-button-response","88","621762","0.0-88.0","5f8cbc5c355ea745e6cef2ca","5f8cbc5c355ea745e6cef2ca_20240207","","","","7","5","578",""
"3141","0","html-button-response","89","625405","0.0-89.0","5f8cbc5c355ea745e6cef2ca","5f8cbc5c355ea745e6cef2ca_20240207","","","","8","2","1050",""
"4481","0","html-button-response","90","630389","0.0-90.0","5f8cbc5c355ea745e6cef2ca","5f8cbc5c355ea745e6cef2ca_20240207","","","","4","4","960",""
"5114","0","html-button-response","91","636007","0.0-91.0","5f8cbc5c355ea745e6cef2ca","5f8cbc5c355ea745e6cef2ca_20240207","","","","6","7","862",""
"3355","0","html-button-response","92","639871","0.0-92.0","5f8cbc5c355ea745e6cef2ca","5f8cbc5c355ea745e6cef2ca_20240207","","","","5","8","1732",""
"3445","0","html-button-response","93","643818","0.0-93.0","5f8cbc5c355ea745e6cef2ca","5f8cbc5c355ea745e6cef2ca_20240207","","","","6","6","244",""
"3124","0","html-button-response","94","647450","0.0-94.0","5f8cbc5c355ea745e6cef2ca","5f8cbc5c355ea745e6cef2ca_20240207","","","","5","5","984",""
"2299","0","html-button-response","95","650252","0.0-95.0","5f8cbc5c355ea745e6cef2ca","5f8cbc5c355ea745e6cef2ca_20240207","","","","5","5","1483",""
"2292","0","html-button-response","96","653054","0.0-96.0","5f8cbc5c355ea745e6cef2ca","5f8cbc5c355ea745e6cef2ca_20240207","","","","5","7","1214",""
"2184","0","html-button-response","97","655740","0.0-97.0","5f8cbc5c355ea745e6cef2ca","5f8cbc5c355ea745e6cef2ca_20240207","","","","7","5","604",""
"2137","0","html-button-response","98","658390","0.0-98.0","5f8cbc5c355ea745e6cef2ca","5f8cbc5c355ea745e6cef2ca_20240207","","","","6","5","425",""
"2823","0","html-button-response","99","661723","0.0-99.0","5f8cbc5c355ea745e6cef2ca","5f8cbc5c355ea745e6cef2ca_20240207","","","","8","2","1556",""
"5498","0","html-button-response","100","667725","0.0-100.0","5f8cbc5c355ea745e6cef2ca","5f8cbc5c355ea745e6cef2ca_20240207","","","","7","6","902",""
"2676","0","html-button-response","101","670905","0.0-101.0","5f8cbc5c355ea745e6cef2ca","5f8cbc5c355ea745e6cef2ca_20240207","","","","4","4","507",""
"6697","0","html-button-response","102","678107","0.0-102.0","5f8cbc5c355ea745e6cef2ca","5f8cbc5c355ea745e6cef2ca_20240207","","","","8","8","1030",""
"6947","0","html-button-response","103","685562","0.0-103.0","5f8cbc5c355ea745e6cef2ca","5f8cbc5c355ea745e6cef2ca_20240207","","","","7","5","758",""
"7471","0","html-button-response","104","693536","0.0-104.0","5f8cbc5c355ea745e6cef2ca","5f8cbc5c355ea745e6cef2ca_20240207","","","","5","3","923",""
"3648","0","html-button-response","105","697684","0.0-105.0","5f8cbc5c355ea745e6cef2ca","5f8cbc5c355ea745e6cef2ca_20240207","","","","8","2","1232",""
"2259","0","html-button-response","106","700444","0.0-106.0","5f8cbc5c355ea745e6cef2ca","5f8cbc5c355ea745e6cef2ca_20240207","","","","7","3","738",""
"2127","0","html-button-response","107","703079","0.0-107.0","5f8cbc5c355ea745e6cef2ca","5f8cbc5c355ea745e6cef2ca_20240207","","","","5","4","1286",""
"2661","0","html-button-response","108","706242","0.0-108.0","5f8cbc5c355ea745e6cef2ca","5f8cbc5c355ea745e6cef2ca_20240207","","","","4","4","662",""
"2973","0","html-button-response","109","709716","0.0-109.0","5f8cbc5c355ea745e6cef2ca","5f8cbc5c355ea745e6cef2ca_20240207","","","","8","5","20",""
"5216","0","html-button-response","110","715434","0.0-110.0","5f8cbc5c355ea745e6cef2ca","5f8cbc5c355ea745e6cef2ca_20240207","","","","5","5","1314",""
"2801","0","html-button-response","111","718736","0.0-111.0","5f8cbc5c355ea745e6cef2ca","5f8cbc5c355ea745e6cef2ca_20240207","","","","7","7","1054",""
"4214","0","html-button-response","112","723457","0.0-112.0","5f8cbc5c355ea745e6cef2ca","5f8cbc5c355ea745e6cef2ca_20240207","","","","6","6","482",""
"3947","0","html-button-response","113","727906","0.0-113.0","5f8cbc5c355ea745e6cef2ca","5f8cbc5c355ea745e6cef2ca_20240207","","","","6","6","798",""
"2481","0","html-button-response","114","730902","0.0-114.0","5f8cbc5c355ea745e6cef2ca","5f8cbc5c355ea745e6cef2ca_20240207","","","","9","1","1373",""
"2471","0","html-button-response","115","733874","0.0-115.0","5f8cbc5c355ea745e6cef2ca","5f8cbc5c355ea745e6cef2ca_20240207","","","","5","5","1449",""
"2511","0","html-button-response","116","736886","0.0-116.0","5f8cbc5c355ea745e6cef2ca","5f8cbc5c355ea745e6cef2ca_20240207","","","","6","6","1236",""
"4356","0","html-button-response","117","741744","0.0-117.0","5f8cbc5c355ea745e6cef2ca","5f8cbc5c355ea745e6cef2ca_20240207","","","","7","3","1020",""
"5157","0","html-button-response","118","747402","0.0-118.0","5f8cbc5c355ea745e6cef2ca","5f8cbc5c355ea745e6cef2ca_20240207","","","","3","3","1480",""
"2281","0","html-button-response","119","750183","0.0-119.0","5f8cbc5c355ea745e6cef2ca","5f8cbc5c355ea745e6cef2ca_20240207","","","","5","5","2173",""
"3981","0","html-button-response","120","754671","0.0-120.0","5f8cbc5c355ea745e6cef2ca","5f8cbc5c355ea745e6cef2ca_20240207","","","","5","4","1819",""
"2283","0","html-button-response","121","757459","0.0-121.0","5f8cbc5c355ea745e6cef2ca","5f8cbc5c355ea745e6cef2ca_20240207","","","","7","5","613",""
"5607","0","html-button-response","122","763567","0.0-122.0","5f8cbc5c355ea745e6cef2ca","5f8cbc5c355ea745e6cef2ca_20240207","","","","7","3","1554",""
"5638","0","html-button-response","123","769707","0.0-123.0","5f8cbc5c355ea745e6cef2ca","5f8cbc5c355ea745e6cef2ca_20240207","","","","7","3","1022",""
"2024","0","html-button-response","124","772236","0.0-124.0","5f8cbc5c355ea745e6cef2ca","5f8cbc5c355ea745e6cef2ca_20240207","","","","5","5","1824",""
"10104","0","html-button-response","125","782856","0.0-125.0","5f8cbc5c355ea745e6cef2ca","5f8cbc5c355ea745e6cef2ca_20240207","","","","5","6","2101",""
"2124","0","html-button-response","126","785483","0.0-126.0","5f8cbc5c355ea745e6cef2ca","5f8cbc5c355ea745e6cef2ca_20240207","","","","5","5","1991",""
"3889","0","html-button-response","127","789873","0.0-127.0","5f8cbc5c355ea745e6cef2ca","5f8cbc5c355ea745e6cef2ca_20240207","","","","7","5","79",""
"4459","0","html-button-response","128","794841","0.0-128.0","5f8cbc5c355ea745e6cef2ca","5f8cbc5c355ea745e6cef2ca_20240207","","","","5","4","974",""
"2889","0","html-button-response","129","798231","0.0-129.0","5f8cbc5c355ea745e6cef2ca","5f8cbc5c355ea745e6cef2ca_20240207","","","","4","4","608",""
"6696","0","html-button-response","130","805439","0.0-130.0","5f8cbc5c355ea745e6cef2ca","5f8cbc5c355ea745e6cef2ca_20240207","","","","4","3","168",""
"5977","0","html-button-response","131","811919","0.0-131.0","5f8cbc5c355ea745e6cef2ca","5f8cbc5c355ea745e6cef2ca_20240207","","","","4","4","499",""
"4782","0","html-button-response","132","817214","0.0-132.0","5f8cbc5c355ea745e6cef2ca","5f8cbc5c355ea745e6cef2ca_20240207","","","","9","5","18",""
"3563","0","html-button-response","133","821278","0.0-133.0","5f8cbc5c355ea745e6cef2ca","5f8cbc5c355ea745e6cef2ca_20240207","","","","8","2","1231",""
"3892","0","html-button-response","134","825686","0.0-134.0","5f8cbc5c355ea745e6cef2ca","5f8cbc5c355ea745e6cef2ca_20240207","","","","9","5","3",""
"5184","0","html-button-response","135","831377","0.0-135.0","5f8cbc5c355ea745e6cef2ca","5f8cbc5c355ea745e6cef2ca_20240207","","","","5","1","2080",""
"1953","0","html-button-response","136","833841","0.0-136.0","5f8cbc5c355ea745e6cef2ca","5f8cbc5c355ea745e6cef2ca_20240207","","","","5","5","1485",""
"3682","0","html-button-response","137","838031","0.0-137.0","5f8cbc5c355ea745e6cef2ca","5f8cbc5c355ea745e6cef2ca_20240207","","","","5","7","1564",""
"6945","0","html-button-response","138","845490","0.0-138.0","5f8cbc5c355ea745e6cef2ca","5f8cbc5c355ea745e6cef2ca_20240207","","","","4","4","988",""
"6244","0","html-button-response","139","852241","0.0-139.0","5f8cbc5c355ea745e6cef2ca","5f8cbc5c355ea745e6cef2ca_20240207","","","","6","6","243",""
"5832","0","html-button-response","140","858581","0.0-140.0","5f8cbc5c355ea745e6cef2ca","5f8cbc5c355ea745e6cef2ca_20240207","","","","5","2","2079",""
"2332","0","html-button-response","141","861417","0.0-141.0","5f8cbc5c355ea745e6cef2ca","5f8cbc5c355ea745e6cef2ca_20240207","","","","5","3","962",""
"5397","0","html-button-response","142","867322","0.0-142.0","5f8cbc5c355ea745e6cef2ca","5f8cbc5c355ea745e6cef2ca_20240207","","","","7","3","1400",""
"3317","0","html-button-response","143","871139","0.0-143.0","5f8cbc5c355ea745e6cef2ca","5f8cbc5c355ea745e6cef2ca_20240207","","","","5","4","1269",""
"23896","0","html-button-response","144","895537","0.0-144.0","5f8cbc5c355ea745e6cef2ca","5f8cbc5c355ea745e6cef2ca_20240207","","","","4","6","1411",""
"7831","0","html-button-response","145","903871","0.0-145.0","5f8cbc5c355ea745e6cef2ca","5f8cbc5c355ea745e6cef2ca_20240207","","","","7","7","690",""
"3704","0","html-button-response","146","908081","0.0-146.0","5f8cbc5c355ea745e6cef2ca","5f8cbc5c355ea745e6cef2ca_20240207","","","","7","5","280",""
"5079","0","html-button-response","147","913661","0.0-147.0","5f8cbc5c355ea745e6cef2ca","5f8cbc5c355ea745e6cef2ca_20240207","","","","6","5","736",""
"3600","0","html-button-response","148","917776","0.0-148.0","5f8cbc5c355ea745e6cef2ca","5f8cbc5c355ea745e6cef2ca_20240207","","","","5","4","1960",""
"3192","0","html-button-response","149","921472","0.0-149.0","5f8cbc5c355ea745e6cef2ca","5f8cbc5c355ea745e6cef2ca_20240207","","","","8","5","210",""
"2954","0","html-button-response","150","924938","0.0-150.0","5f8cbc5c355ea745e6cef2ca","5f8cbc5c355ea745e6cef2ca_20240207","","","","7","3","558",""
"2636","0","html-button-response","151","928075","0.0-151.0","5f8cbc5c355ea745e6cef2ca","5f8cbc5c355ea745e6cef2ca_20240207","","","","6","5","760",""
"4795","0","html-button-response","152","933379","0.0-152.0","5f8cbc5c355ea745e6cef2ca","5f8cbc5c355ea745e6cef2ca_20240207","","","","5","4","1594",""
"2132","0","html-button-response","153","936013","0.0-153.0","5f8cbc5c355ea745e6cef2ca","5f8cbc5c355ea745e6cef2ca_20240207","","","","5","5","1158",""
"2920","0","html-button-response","154","939437","0.0-154.0","5f8cbc5c355ea745e6cef2ca","5f8cbc5c355ea745e6cef2ca_20240207","","","","6","4","698",""
"2789","0","html-button-response","155","942731","0.0-155.0","5f8cbc5c355ea745e6cef2ca","5f8cbc5c355ea745e6cef2ca_20240207","","","","5","8","1707",""
"3689","0","html-button-response","156","946932","0.0-156.0","5f8cbc5c355ea745e6cef2ca","5f8cbc5c355ea745e6cef2ca_20240207","","","","4","5","2001",""
"3353","0","html-button-response","157","950794","0.0-157.0","5f8cbc5c355ea745e6cef2ca","5f8cbc5c355ea745e6cef2ca_20240207","","","","7","3","1205",""
"7684","0","html-button-response","158","958990","0.0-158.0","5f8cbc5c355ea745e6cef2ca","5f8cbc5c355ea745e6cef2ca_20240207","","","","7","7","87",""
"4499","0","html-button-response","159","963990","0.0-159.0","5f8cbc5c355ea745e6cef2ca","5f8cbc5c355ea745e6cef2ca_20240207","","","","3","3","311",""
"3798","0","html-button-response","160","968295","0.0-160.0","5f8cbc5c355ea745e6cef2ca","5f8cbc5c355ea745e6cef2ca_20240207","","","","6","4","711",""
"2054","0","html-button-response","161","970853","0.0-161.0","5f8cbc5c355ea745e6cef2ca","5f8cbc5c355ea745e6cef2ca_20240207","","","","5","5","1858",""
"3092","0","html-button-response","162","974459","0.0-162.0","5f8cbc5c355ea745e6cef2ca","5f8cbc5c355ea745e6cef2ca_20240207","","","","5","5","1125",""
"3431","0","html-button-response","163","978397","0.0-163.0","5f8cbc5c355ea745e6cef2ca","5f8cbc5c355ea745e6cef2ca_20240207","","","","7","7","526",""
"11346","0","html-button-response","164","990246","0.0-164.0","5f8cbc5c355ea745e6cef2ca","5f8cbc5c355ea745e6cef2ca_20240207","","","","7","3","714",""
"5733","0","html-button-response","165","996488","0.0-165.0","5f8cbc5c355ea745e6cef2ca","5f8cbc5c355ea745e6cef2ca_20240207","","","","6","6","914",""
"6337","0","html-button-response","166","1003328","0.0-166.0","5f8cbc5c355ea745e6cef2ca","5f8cbc5c355ea745e6cef2ca_20240207","","","","4","5","763",""
"4096","0","html-button-response","167","1007927","0.0-167.0","5f8cbc5c355ea745e6cef2ca","5f8cbc5c355ea745e6cef2ca_20240207","","","","5","5","1670",""
"4860","0","html-button-response","168","1013300","0.0-168.0","5f8cbc5c355ea745e6cef2ca","5f8cbc5c355ea745e6cef2ca_20240207","","","","7","5","279",""
"2299","0","html-button-response","169","1016110","0.0-169.0","5f8cbc5c355ea745e6cef2ca","5f8cbc5c355ea745e6cef2ca_20240207","","","","6","4","739",""
"2566","0","html-button-response","170","1019191","0.0-170.0","5f8cbc5c355ea745e6cef2ca","5f8cbc5c355ea745e6cef2ca_20240207","","","","7","5","445",""
"2594","0","html-button-response","171","1022291","0.0-171.0","5f8cbc5c355ea745e6cef2ca","5f8cbc5c355ea745e6cef2ca_20240207","","","","5","4","1621",""
"3408","0","html-button-response","172","1026201","0.0-172.0","5f8cbc5c355ea745e6cef2ca","5f8cbc5c355ea745e6cef2ca_20240207","","","","5","2","1456",""
"2030","0","html-button-response","173","1028737","0.0-173.0","5f8cbc5c355ea745e6cef2ca","5f8cbc5c355ea745e6cef2ca_20240207","","","","5","3","1482",""
"2669","0","html-button-response","174","1031921","0.0-174.0","5f8cbc5c355ea745e6cef2ca","5f8cbc5c355ea745e6cef2ca_20240207","","","","5","4","1271",""
"4949","0","html-button-response","175","1037372","0.0-175.0","5f8cbc5c355ea745e6cef2ca","5f8cbc5c355ea745e6cef2ca_20240207","","","","7","7","541",""
"10068","0","html-button-response","176","1047954","0.0-176.0","5f8cbc5c355ea745e6cef2ca","5f8cbc5c355ea745e6cef2ca_20240207","","","","5","5","2027",""
"1985","0","html-button-response","177","1050441","0.0-177.0","5f8cbc5c355ea745e6cef2ca","5f8cbc5c355ea745e6cef2ca_20240207","","","","5","5","1291",""
"3241","0","html-button-response","178","1054196","0.0-178.0","5f8cbc5c355ea745e6cef2ca","5f8cbc5c355ea745e6cef2ca_20240207","","","","5","7","1759",""
"1699","0","html-button-response","179","1056403","0.0-179.0","5f8cbc5c355ea745e6cef2ca","5f8cbc5c355ea745e6cef2ca_20240207","","","","5","8","2072",""
"5608","0","html-button-response","180","1062512","0.0-180.0","5f8cbc5c355ea745e6cef2ca","5f8cbc5c355ea745e6cef2ca_20240207","","","","6","4","1389",""
"5307","0","html-button-response","181","1068325","0.0-181.0","5f8cbc5c355ea745e6cef2ca","5f8cbc5c355ea745e6cef2ca_20240207","","","","4","4","1767",""
"4445","0","html-button-response","182","1073277","0.0-182.0","5f8cbc5c355ea745e6cef2ca","5f8cbc5c355ea745e6cef2ca_20240207","","","","5","5","1607",""
"2720","0","html-button-response","183","1076506","0.0-183.0","5f8cbc5c355ea745e6cef2ca","5f8cbc5c355ea745e6cef2ca_20240207","","","","7","7","1029",""
"1942","0","html-button-response","184","1078952","0.0-184.0","5f8cbc5c355ea745e6cef2ca","5f8cbc5c355ea745e6cef2ca_20240207","","","","5","5","1683",""
"4353","0","html-button-response","185","1083817","0.0-185.0","5f8cbc5c355ea745e6cef2ca","5f8cbc5c355ea745e6cef2ca_20240207","","","","5","3","2002",""
"2981","0","html-button-response","186","1087302","0.0-186.0","5f8cbc5c355ea745e6cef2ca","5f8cbc5c355ea745e6cef2ca_20240207","","","","5","7","1760",""
"2443","0","html-button-response","187","1090252","0.0-187.0","5f8cbc5c355ea745e6cef2ca","5f8cbc5c355ea745e6cef2ca_20240207","","","","5","8","2044",""
"2770","0","html-button-response","188","1093524","0.0-188.0","5f8cbc5c355ea745e6cef2ca","5f8cbc5c355ea745e6cef2ca_20240207","","","","6","4","1399",""
"3703","0","html-button-response","189","1097739","0.0-189.0","5f8cbc5c355ea745e6cef2ca","5f8cbc5c355ea745e6cef2ca_20240207","","","","7","7","216",""
"4908","0","html-button-response","190","1103150","0.0-190.0","5f8cbc5c355ea745e6cef2ca","5f8cbc5c355ea745e6cef2ca_20240207","","","","7","3","1377",""
"3238","0","html-button-response","191","1106889","0.0-191.0","5f8cbc5c355ea745e6cef2ca","5f8cbc5c355ea745e6cef2ca_20240207","","","","7","7","555",""
"3428","0","html-button-response","192","1110827","0.0-192.0","5f8cbc5c355ea745e6cef2ca","5f8cbc5c355ea745e6cef2ca_20240207","","","","5","5","2149",""
"2317","0","html-button-response","193","1113646","0.0-193.0","5f8cbc5c355ea745e6cef2ca","5f8cbc5c355ea745e6cef2ca_20240207","","","","5","5","1167",""
"2243","0","html-button-response","194","1116392","0.0-194.0","5f8cbc5c355ea745e6cef2ca","5f8cbc5c355ea745e6cef2ca_20240207","","","","5","7","1939",""
"4164","0","html-button-response","195","1121066","0.0-195.0","5f8cbc5c355ea745e6cef2ca","5f8cbc5c355ea745e6cef2ca_20240207","","","","8","8","846",""
"8725","0","html-button-response","196","1130297","0.0-196.0","5f8cbc5c355ea745e6cef2ca","5f8cbc5c355ea745e6cef2ca_20240207","","","","4","2","584",""
"4210","0","html-button-response","197","1135009","0.0-197.0","5f8cbc5c355ea745e6cef2ca","5f8cbc5c355ea745e6cef2ca_20240207","","","","7","5","407",""
"2246","0","html-button-response","198","1137769","0.0-198.0","5f8cbc5c355ea745e6cef2ca","5f8cbc5c355ea745e6cef2ca_20240207","","","","8","5","200",""
"2986","0","html-button-response","199","1141257","0.0-199.0","5f8cbc5c355ea745e6cef2ca","5f8cbc5c355ea745e6cef2ca_20240207","","","","5","5","1340",""
"1875","0","html-button-response","200","1143633","0.0-200.0","5f8cbc5c355ea745e6cef2ca","5f8cbc5c355ea745e6cef2ca_20240207","","","","5","5","1446",""
"2432","0","html-button-response","201","1146581","0.0-201.0","5f8cbc5c355ea745e6cef2ca","5f8cbc5c355ea745e6cef2ca_20240207","","","","6","6","924",""
"4333","0","html-button-response","202","1151423","0.0-202.0","5f8cbc5c355ea745e6cef2ca","5f8cbc5c355ea745e6cef2ca_20240207","","","","5","3","1118",""
"3872","0","html-button-response","203","1155803","0.0-203.0","5f8cbc5c355ea745e6cef2ca","5f8cbc5c355ea745e6cef2ca_20240207","","","","4","5","989",""
"3342","0","html-button-response","204","1159652","0.0-204.0","5f8cbc5c355ea745e6cef2ca","5f8cbc5c355ea745e6cef2ca_20240207","","","","4","5","815",""
"4587","0","html-button-response","205","1164739","0.0-205.0","5f8cbc5c355ea745e6cef2ca","5f8cbc5c355ea745e6cef2ca_20240207","","","","5","3","1752",""
"6216","0","html-button-response","206","1171461","0.0-206.0","5f8cbc5c355ea745e6cef2ca","5f8cbc5c355ea745e6cef2ca_20240207","","","","4","5","488",""
"7481","0","html-button-response","207","1179444","0.0-207.0","5f8cbc5c355ea745e6cef2ca","5f8cbc5c355ea745e6cef2ca_20240207","","","","8","5","223",""
"4631","0","html-button-response","208","1184584","0.0-208.0","5f8cbc5c355ea745e6cef2ca","5f8cbc5c355ea745e6cef2ca_20240207","","","","4","6","1262",""
"5540","0","html-button-response","209","1190637","0.0-209.0","5f8cbc5c355ea745e6cef2ca","5f8cbc5c355ea745e6cef2ca_20240207","","","","4","1","1716",""
"5147","0","html-button-response","210","1196291","0.0-210.0","5f8cbc5c355ea745e6cef2ca","5f8cbc5c355ea745e6cef2ca_20240207","","","","4","3","468",""
"2408","0","html-button-response","211","1199207","0.0-211.0","5f8cbc5c355ea745e6cef2ca","5f8cbc5c355ea745e6cef2ca_20240207","","","","4","4","329",""
"4375","0","html-button-response","212","1204086","0.0-212.0","5f8cbc5c355ea745e6cef2ca","5f8cbc5c355ea745e6cef2ca_20240207","","","","7","5","731",""
"2710","0","html-button-response","213","1207298","0.0-213.0","5f8cbc5c355ea745e6cef2ca","5f8cbc5c355ea745e6cef2ca_20240207","","","","5","4","1452",""
"1847","0","html-button-response","214","1209652","0.0-214.0","5f8cbc5c355ea745e6cef2ca","5f8cbc5c355ea745e6cef2ca_20240207","","","","5","5","1489",""
"1890","0","html-button-response","215","1212049","0.0-215.0","5f8cbc5c355ea745e6cef2ca","5f8cbc5c355ea745e6cef2ca_20240207","","","","5","5","1154",""
"1943","0","html-button-response","216","1214495","0.0-216.0","5f8cbc5c355ea745e6cef2ca","5f8cbc5c355ea745e6cef2ca_20240207","","","","5","5","1640",""
"1672","0","html-button-response","217","1216668","0.0-217.0","5f8cbc5c355ea745e6cef2ca","5f8cbc5c355ea745e6cef2ca_20240207","","","","5","5","813",""
"3311","0","html-button-response","218","1220488","0.0-218.0","5f8cbc5c355ea745e6cef2ca","5f8cbc5c355ea745e6cef2ca_20240207","","","","7","3","1541",""
"2467","0","html-button-response","219","1223457","0.0-219.0","5f8cbc5c355ea745e6cef2ca","5f8cbc5c355ea745e6cef2ca_20240207","","","","5","4","1493",""
"4113","0","html-button-response","220","1228077","0.0-220.0","5f8cbc5c355ea745e6cef2ca","5f8cbc5c355ea745e6cef2ca_20240207","","","","4","6","1942",""
"2055","0","html-button-response","221","1230634","0.0-221.0","5f8cbc5c355ea745e6cef2ca","5f8cbc5c355ea745e6cef2ca_20240207","","","","6","4","702",""
"4937","0","html-button-response","222","1236074","0.0-222.0","5f8cbc5c355ea745e6cef2ca","5f8cbc5c355ea745e6cef2ca_20240207","","","","3","3","309",""
"3006","0","html-button-response","223","1239589","0.0-223.0","5f8cbc5c355ea745e6cef2ca","5f8cbc5c355ea745e6cef2ca_20240207","","","","7","7","1031",""
"3104","0","html-button-response","224","1243204","0.0-224.0","5f8cbc5c355ea745e6cef2ca","5f8cbc5c355ea745e6cef2ca_20240207","","","","5","9","1691",""
"1515","0","html-button-response","225","1245224","0.0-225.0","5f8cbc5c355ea745e6cef2ca","5f8cbc5c355ea745e6cef2ca_20240207","","","Thank you. You have reached the end. 
                       <br>Click the button below to reveal your compensation.
                        <br><br>","","","","580,2167,1911,2045,275,100,2036,1859,225,267,1157,312,884,99,750,141,1523,1127,1303,181,1370,307,2000,839,1591,1505,396,201,872,1005,1417,1918,1063,536,347,386,260,1252,1307,1646,1490,713,1245,510,754,964,34,1339,398,1457,2055,454,215,30,568,1113,1175,981,542,262,142,112,1363,1391,624,1290,2042,1971,1267,1310,1979,1471,1579,911,1844,1774,705,1828,1706,1816,196,1216,1717,578,1050,960,862,1732,244,984,1483,1214,604,425,1556,902,507,1030,758,923,1232,738,1286,662,20,1314,1054,482,798,1373,1449,1236,1020,1480,2173,1819,613,1554,1022,1824,2101,1991,79,974,608,168,499,18,1231,3,2080,1485,1564,988,243,2079,962,1400,1269,1411,690,280,736,1960,210,558,760,1594,1158,698,1707,2001,1205,87,311,711,1858,1125,526,714,914,763,1670,279,739,445,1621,1456,1482,1271,541,2027,1291,1759,2072,1389,1767,1607,1029,1683,2002,1760,2044,1399,216,1377,555,2149,1167,1939,846,584,407,200,1340,1446,924,1118,989,815,1752,488,223,1262,1716,468,329,731,1452,1489,1154,1640,813,1541,1493,1942,702,309,1031,1691"
