"rt","response","trial_type","trial_index","time_elapsed","internal_node_id","part_ID","ID_DATE","screen_id","understand_correct","stimulus","arousal","valence","img_id","tested_trial_idx"
"5028","0","html-button-response","0","5031","0.0-0.0","63ffcb367b500c516d0648a2","63ffcb367b500c516d0648a2_20240207","","","","","","",""
"6057","[object Object]","survey-html-form","1","11605","0.0-1.0","63ffcb367b500c516d0648a2","63ffcb367b500c516d0648a2_20240207","prolific_id_page","","","","","",""
"154014","0","html-button-response","2","165619","0.0-2.0","63ffcb367b500c516d0648a2","63ffcb367b500c516d0648a2_20240207","","","","","","",""
"39827","0","html-button-response","3","205948","0.0-3.0-0.0","63ffcb367b500c516d0648a2","63ffcb367b500c516d0648a2_20240207","","true","","","","",""
"108087","0","html-button-response","4","314539","0.0-4.0","63ffcb367b500c516d0648a2","63ffcb367b500c516d0648a2_20240207","","","
<div>
Great! You will now go on to rate the faces.
<br><br>
</div>
","","","",""
"10627","0","html-button-response","5","325677","0.0-5.0","63ffcb367b500c516d0648a2","63ffcb367b500c516d0648a2_20240207","","","","5","7","2107",""
"5525","0","html-button-response","6","331710","0.0-6.0","63ffcb367b500c516d0648a2","63ffcb367b500c516d0648a2_20240207","","","","5","1","1220",""
"2568","0","html-button-response","7","334783","0.0-7.0","63ffcb367b500c516d0648a2","63ffcb367b500c516d0648a2_20240207","","","","5","5","1307",""
"3375","0","html-button-response","8","338660","0.0-8.0","63ffcb367b500c516d0648a2","63ffcb367b500c516d0648a2_20240207","","","","8","7","1382",""
"6639","0","html-button-response","9","345807","0.0-9.0","63ffcb367b500c516d0648a2","63ffcb367b500c516d0648a2_20240207","","","","5","4","1667",""
"5083","0","html-button-response","10","351391","0.0-10.0","63ffcb367b500c516d0648a2","63ffcb367b500c516d0648a2_20240207","","","","9","5","170",""
"2641","0","html-button-response","11","354546","0.0-11.0","63ffcb367b500c516d0648a2","63ffcb367b500c516d0648a2_20240207","","","","5","1","532",""
"3026","0","html-button-response","12","358076","0.0-12.0","63ffcb367b500c516d0648a2","63ffcb367b500c516d0648a2_20240207","","","","6","8","1213",""
"2835","0","html-button-response","13","361413","0.0-13.0","63ffcb367b500c516d0648a2","63ffcb367b500c516d0648a2_20240207","","","","5","1","1364",""
"2319","0","html-button-response","14","364236","0.0-14.0","63ffcb367b500c516d0648a2","63ffcb367b500c516d0648a2_20240207","","","","5","5","1322",""
"12980","0","html-button-response","15","377732","0.0-15.0","63ffcb367b500c516d0648a2","63ffcb367b500c516d0648a2_20240207","","","","4","3","506",""
"3623","0","html-button-response","16","381856","0.0-16.0","63ffcb367b500c516d0648a2","63ffcb367b500c516d0648a2_20240207","","","","9","5","240",""
"4189","0","html-button-response","17","386551","0.0-17.0","63ffcb367b500c516d0648a2","63ffcb367b500c516d0648a2_20240207","","","","5","1","156",""
"2594","0","html-button-response","18","389658","0.0-18.0","63ffcb367b500c516d0648a2","63ffcb367b500c516d0648a2_20240207","","","","5","8","1397",""
"2592","0","html-button-response","19","392765","0.0-19.0","63ffcb367b500c516d0648a2","63ffcb367b500c516d0648a2_20240207","","","","5","2","1441",""
"2536","0","html-button-response","20","395803","0.0-20.0","63ffcb367b500c516d0648a2","63ffcb367b500c516d0648a2_20240207","","","","5","1","1022",""
"2148","0","html-button-response","21","398452","0.0-21.0","63ffcb367b500c516d0648a2","63ffcb367b500c516d0648a2_20240207","","","","5","5","1330",""
"3223","0","html-button-response","22","402181","0.0-22.0","63ffcb367b500c516d0648a2","63ffcb367b500c516d0648a2_20240207","","","","5","4","1492",""
"4709","0","html-button-response","23","407392","0.0-23.0","63ffcb367b500c516d0648a2","63ffcb367b500c516d0648a2_20240207","","","","8","2","179",""
"2165","0","html-button-response","24","410066","0.0-24.0","63ffcb367b500c516d0648a2","63ffcb367b500c516d0648a2_20240207","","","","5","5","1145",""
"169004","0","html-button-response","25","579585","0.0-25.0","63ffcb367b500c516d0648a2","63ffcb367b500c516d0648a2_20240207","","","","8","2","515",""
"4569","0","html-button-response","26","584664","0.0-26.0","63ffcb367b500c516d0648a2","63ffcb367b500c516d0648a2_20240207","","","","5","3","488",""
"2709","0","html-button-response","27","587876","0.0-27.0","63ffcb367b500c516d0648a2","63ffcb367b500c516d0648a2_20240207","","","","4","5","840",""
"2820","0","html-button-response","28","591208","0.0-28.0","63ffcb367b500c516d0648a2","63ffcb367b500c516d0648a2_20240207","","","","5","5","2017",""
"3855","0","html-button-response","29","595569","0.0-29.0","63ffcb367b500c516d0648a2","63ffcb367b500c516d0648a2_20240207","","","","6","2","338",""
"5048","0","html-button-response","30","601129","0.0-30.0","63ffcb367b500c516d0648a2","63ffcb367b500c516d0648a2_20240207","","","","8","5","409",""
"2895","0","html-button-response","31","604526","0.0-31.0","63ffcb367b500c516d0648a2","63ffcb367b500c516d0648a2_20240207","","","","6","8","886",""
"4950","0","html-button-response","32","609991","0.0-32.0","63ffcb367b500c516d0648a2","63ffcb367b500c516d0648a2_20240207","","","","7","2","1976",""
"3550","0","html-button-response","33","614055","0.0-33.0","63ffcb367b500c516d0648a2","63ffcb367b500c516d0648a2_20240207","","","","9","5","118",""
"3154","0","html-button-response","34","617719","0.0-34.0","63ffcb367b500c516d0648a2","63ffcb367b500c516d0648a2_20240207","","","","7","1","698",""
"5448","0","html-button-response","35","623672","0.0-35.0","63ffcb367b500c516d0648a2","63ffcb367b500c516d0648a2_20240207","","","","6","1","1209",""
"2375","0","html-button-response","36","626551","0.0-36.0","63ffcb367b500c516d0648a2","63ffcb367b500c516d0648a2_20240207","","","","5","5","1480",""
"2472","0","html-button-response","37","629533","0.0-37.0","63ffcb367b500c516d0648a2","63ffcb367b500c516d0648a2_20240207","","","","3","5","1338",""
"2933","0","html-button-response","38","632972","0.0-38.0","63ffcb367b500c516d0648a2","63ffcb367b500c516d0648a2_20240207","","","","5","4","1272",""
"4226","0","html-button-response","39","637699","0.0-39.0","63ffcb367b500c516d0648a2","63ffcb367b500c516d0648a2_20240207","","","","5","5","801",""
"3396","0","html-button-response","40","641603","0.0-40.0","63ffcb367b500c516d0648a2","63ffcb367b500c516d0648a2_20240207","","","","5","4","1815",""
"2172","0","html-button-response","41","644277","0.0-41.0","63ffcb367b500c516d0648a2","63ffcb367b500c516d0648a2_20240207","","","","5","5","789",""
"2281","0","html-button-response","42","647072","0.0-42.0","63ffcb367b500c516d0648a2","63ffcb367b500c516d0648a2_20240207","","","","5","2","1375",""
"2465","0","html-button-response","43","650053","0.0-43.0","63ffcb367b500c516d0648a2","63ffcb367b500c516d0648a2_20240207","","","","5","6","1628",""
"4180","0","html-button-response","44","654740","0.0-44.0","63ffcb367b500c516d0648a2","63ffcb367b500c516d0648a2_20240207","","","","8","5","579",""
"152746","0","html-button-response","45","807988","0.0-45.0","63ffcb367b500c516d0648a2","63ffcb367b500c516d0648a2_20240207","","","","5","5","2127",""
"2790","0","html-button-response","46","811279","0.0-46.0","63ffcb367b500c516d0648a2","63ffcb367b500c516d0648a2_20240207","","","","5","3","2183",""
"3521","0","html-button-response","47","815309","0.0-47.0","63ffcb367b500c516d0648a2","63ffcb367b500c516d0648a2_20240207","","","","5","5","1328",""
"7849","0","html-button-response","48","823666","0.0-48.0","63ffcb367b500c516d0648a2","63ffcb367b500c516d0648a2_20240207","","","","8","6","783",""
"6204","0","html-button-response","49","830371","0.0-49.0","63ffcb367b500c516d0648a2","63ffcb367b500c516d0648a2_20240207","","","","7","2","1036",""
"2148","0","html-button-response","50","833035","0.0-50.0","63ffcb367b500c516d0648a2","63ffcb367b500c516d0648a2_20240207","","","","5","5","1631",""
"3183","0","html-button-response","51","836719","0.0-51.0","63ffcb367b500c516d0648a2","63ffcb367b500c516d0648a2_20240207","","","","9","5","185",""
"2329","0","html-button-response","52","839560","0.0-52.0","63ffcb367b500c516d0648a2","63ffcb367b500c516d0648a2_20240207","","","","6","2","1194",""
"2631","0","html-button-response","53","842697","0.0-53.0","63ffcb367b500c516d0648a2","63ffcb367b500c516d0648a2_20240207","","","","4","5","1128",""
"2445","0","html-button-response","54","845644","0.0-54.0","63ffcb367b500c516d0648a2","63ffcb367b500c516d0648a2_20240207","","","","5","6","2160",""
"4500","0","html-button-response","55","850655","0.0-55.0","63ffcb367b500c516d0648a2","63ffcb367b500c516d0648a2_20240207","","","","8","7","1393",""
"2417","0","html-button-response","56","853581","0.0-56.0","63ffcb367b500c516d0648a2","63ffcb367b500c516d0648a2_20240207","","","","5","5","1801",""
"2535","0","html-button-response","57","856628","0.0-57.0","63ffcb367b500c516d0648a2","63ffcb367b500c516d0648a2_20240207","","","","5","4","1737",""
"4956","0","html-button-response","58","862098","0.0-58.0","63ffcb367b500c516d0648a2","63ffcb367b500c516d0648a2_20240207","","","","4","3","332",""
"3268","0","html-button-response","59","865878","0.0-59.0","63ffcb367b500c516d0648a2","63ffcb367b500c516d0648a2_20240207","","","","6","8","1887",""
"6852","0","html-button-response","60","873232","0.0-60.0","63ffcb367b500c516d0648a2","63ffcb367b500c516d0648a2_20240207","","","","8","3","327",""
"3144","0","html-button-response","61","876878","0.0-61.0","63ffcb367b500c516d0648a2","63ffcb367b500c516d0648a2_20240207","","","","6","1","104",""
"2175","0","html-button-response","62","879558","0.0-62.0","63ffcb367b500c516d0648a2","63ffcb367b500c516d0648a2_20240207","","","","5","5","1659",""
"4343","0","html-button-response","63","884406","0.0-63.0","63ffcb367b500c516d0648a2","63ffcb367b500c516d0648a2_20240207","","","","7","3","159",""
"2940","0","html-button-response","64","887853","0.0-64.0","63ffcb367b500c516d0648a2","63ffcb367b500c516d0648a2_20240207","","","","8","6","209",""
"134081","0","html-button-response","65","1022437","0.0-65.0","63ffcb367b500c516d0648a2","63ffcb367b500c516d0648a2_20240207","","","","8","6","28",""
"83481","0","html-button-response","66","1106421","0.0-66.0","63ffcb367b500c516d0648a2","63ffcb367b500c516d0648a2_20240207","","","","7","2","1542",""
"2442","0","html-button-response","67","1109373","0.0-67.0","63ffcb367b500c516d0648a2","63ffcb367b500c516d0648a2_20240207","","","","8","6","32",""
"3729","0","html-button-response","68","1113603","0.0-68.0","63ffcb367b500c516d0648a2","63ffcb367b500c516d0648a2_20240207","","","","4","4","473",""
"2987","0","html-button-response","69","1117101","0.0-69.0","63ffcb367b500c516d0648a2","63ffcb367b500c516d0648a2_20240207","","","","5","4","1156",""
"1892","0","html-button-response","70","1119496","0.0-70.0","63ffcb367b500c516d0648a2","63ffcb367b500c516d0648a2_20240207","","","","5","2","1362",""
"1906","0","html-button-response","71","1121908","0.0-71.0","63ffcb367b500c516d0648a2","63ffcb367b500c516d0648a2_20240207","","","","5","5","1475",""
"2472","0","html-button-response","72","1124883","0.0-72.0","63ffcb367b500c516d0648a2","63ffcb367b500c516d0648a2_20240207","","","","5","6","1424",""
"2237","0","html-button-response","73","1127628","0.0-73.0","63ffcb367b500c516d0648a2","63ffcb367b500c516d0648a2_20240207","","","","5","7","1772",""
"2641","0","html-button-response","74","1130770","0.0-74.0","63ffcb367b500c516d0648a2","63ffcb367b500c516d0648a2_20240207","","","","7","7","1224",""
"2772","0","html-button-response","75","1134045","0.0-75.0","63ffcb367b500c516d0648a2","63ffcb367b500c516d0648a2_20240207","","","","5","4","1268",""
"2970","0","html-button-response","76","1137517","0.0-76.0","63ffcb367b500c516d0648a2","63ffcb367b500c516d0648a2_20240207","","","","6","7","2097",""
"3382","0","html-button-response","77","1141403","0.0-77.0","63ffcb367b500c516d0648a2","63ffcb367b500c516d0648a2_20240207","","","","8","3","88",""
"2740","0","html-button-response","78","1144653","0.0-78.0","63ffcb367b500c516d0648a2","63ffcb367b500c516d0648a2_20240207","","","","7","2","571",""
"2033","0","html-button-response","79","1147196","0.0-79.0","63ffcb367b500c516d0648a2","63ffcb367b500c516d0648a2_20240207","","","","4","5","1160",""
"3777","0","html-button-response","80","1151476","0.0-80.0","63ffcb367b500c516d0648a2","63ffcb367b500c516d0648a2_20240207","","","","5","3","1779",""
"2673","0","html-button-response","81","1154651","0.0-81.0","63ffcb367b500c516d0648a2","63ffcb367b500c516d0648a2_20240207","","","","5","5","1980",""
"2961","0","html-button-response","82","1158121","0.0-82.0","63ffcb367b500c516d0648a2","63ffcb367b500c516d0648a2_20240207","","","","8","3","191",""
"2315","0","html-button-response","83","1160947","0.0-83.0","63ffcb367b500c516d0648a2","63ffcb367b500c516d0648a2_20240207","","","","8","4","878",""
"4624","0","html-button-response","84","1166074","0.0-84.0","63ffcb367b500c516d0648a2","63ffcb367b500c516d0648a2_20240207","","","","4","4","667",""
"3053","0","html-button-response","85","1169635","0.0-85.0","63ffcb367b500c516d0648a2","63ffcb367b500c516d0648a2_20240207","","","","5","7","1917",""
"2624","0","html-button-response","86","1172762","0.0-86.0","63ffcb367b500c516d0648a2","63ffcb367b500c516d0648a2_20240207","","","","5","2","1363",""
"3829","0","html-button-response","87","1177094","0.0-87.0","63ffcb367b500c516d0648a2","63ffcb367b500c516d0648a2_20240207","","","","5","5","2021",""
"5142","0","html-button-response","88","1182744","0.0-88.0","63ffcb367b500c516d0648a2","63ffcb367b500c516d0648a2_20240207","","","","4","2","1572",""
"5459","0","html-button-response","89","1188711","0.0-89.0","63ffcb367b500c516d0648a2","63ffcb367b500c516d0648a2_20240207","","","","3","4","1170",""
"57935","0","html-button-response","90","1247147","0.0-90.0","63ffcb367b500c516d0648a2","63ffcb367b500c516d0648a2_20240207","","","","6","5","641",""
"4462","0","html-button-response","91","1252114","0.0-91.0","63ffcb367b500c516d0648a2","63ffcb367b500c516d0648a2_20240207","","","","4","4","1675",""
"3218","0","html-button-response","92","1255834","0.0-92.0","63ffcb367b500c516d0648a2","63ffcb367b500c516d0648a2_20240207","","","","5","3","2077",""
"2360","0","html-button-response","93","1258695","0.0-93.0","63ffcb367b500c516d0648a2","63ffcb367b500c516d0648a2_20240207","","","","5","8","1212",""
"13258","0","html-button-response","94","1272457","0.0-94.0","63ffcb367b500c516d0648a2","63ffcb367b500c516d0648a2_20240207","","","","5","2","543",""
"16816","0","html-button-response","95","1289774","0.0-95.0","63ffcb367b500c516d0648a2","63ffcb367b500c516d0648a2_20240207","","","","4","2","1910",""
"2635","0","html-button-response","96","1292912","0.0-96.0","63ffcb367b500c516d0648a2","63ffcb367b500c516d0648a2_20240207","","","","5","5","1969",""
"2021","0","html-button-response","97","1295435","0.0-97.0","63ffcb367b500c516d0648a2","63ffcb367b500c516d0648a2_20240207","","","","5","7","2123",""
"2640","0","html-button-response","98","1298584","0.0-98.0","63ffcb367b500c516d0648a2","63ffcb367b500c516d0648a2_20240207","","","","8","6","110",""
"2193","0","html-button-response","99","1301281","0.0-99.0","63ffcb367b500c516d0648a2","63ffcb367b500c516d0648a2_20240207","","","","6","3","1376",""
"2525","0","html-button-response","100","1304308","0.0-100.0","63ffcb367b500c516d0648a2","63ffcb367b500c516d0648a2_20240207","","","","8","3","851",""
"2739","0","html-button-response","101","1307549","0.0-101.0","63ffcb367b500c516d0648a2","63ffcb367b500c516d0648a2_20240207","","","","3","5","816",""
"2976","0","html-button-response","102","1311026","0.0-102.0","63ffcb367b500c516d0648a2","63ffcb367b500c516d0648a2_20240207","","","","8","5","71",""
"2270","0","html-button-response","103","1313808","0.0-103.0","63ffcb367b500c516d0648a2","63ffcb367b500c516d0648a2_20240207","","","","5","9","1705",""
"2997","0","html-button-response","104","1317307","0.0-104.0","63ffcb367b500c516d0648a2","63ffcb367b500c516d0648a2_20240207","","","","3","5","1003",""
"6997","0","html-button-response","105","1324807","0.0-105.0","63ffcb367b500c516d0648a2","63ffcb367b500c516d0648a2_20240207","","","","5","5","1462",""
"2798","0","html-button-response","106","1328107","0.0-106.0","63ffcb367b500c516d0648a2","63ffcb367b500c516d0648a2_20240207","","","","7","3","25",""
"3621","0","html-button-response","107","1332235","0.0-107.0","63ffcb367b500c516d0648a2","63ffcb367b500c516d0648a2_20240207","","","","8","6","384",""
"2382","0","html-button-response","108","1335118","0.0-108.0","63ffcb367b500c516d0648a2","63ffcb367b500c516d0648a2_20240207","","","","8","5","59",""
"2448","0","html-button-response","109","1338067","0.0-109.0","63ffcb367b500c516d0648a2","63ffcb367b500c516d0648a2_20240207","","","","7","5","448",""
"2324","0","html-button-response","110","1340893","0.0-110.0","63ffcb367b500c516d0648a2","63ffcb367b500c516d0648a2_20240207","","","","4","4","1324",""
"2663","0","html-button-response","111","1344058","0.0-111.0","63ffcb367b500c516d0648a2","63ffcb367b500c516d0648a2_20240207","","","","3","4","1323",""
"2850","0","html-button-response","112","1347409","0.0-112.0","63ffcb367b500c516d0648a2","63ffcb367b500c516d0648a2_20240207","","","","6","2","516",""
"1983","0","html-button-response","113","1349895","0.0-113.0","63ffcb367b500c516d0648a2","63ffcb367b500c516d0648a2_20240207","","","","5","2","1701",""
"2328","0","html-button-response","114","1352730","0.0-114.0","63ffcb367b500c516d0648a2","63ffcb367b500c516d0648a2_20240207","","","","5","2","709",""
"2196","0","html-button-response","115","1355427","0.0-115.0","63ffcb367b500c516d0648a2","63ffcb367b500c516d0648a2_20240207","","","","4","3","1417",""
"2838","0","html-button-response","116","1358767","0.0-116.0","63ffcb367b500c516d0648a2","63ffcb367b500c516d0648a2_20240207","","","","5","5","1512",""
"95610","0","html-button-response","117","1454890","0.0-117.0","63ffcb367b500c516d0648a2","63ffcb367b500c516d0648a2_20240207","","","","7","5","226",""
"4543","0","html-button-response","118","1459934","0.0-118.0","63ffcb367b500c516d0648a2","63ffcb367b500c516d0648a2_20240207","","","","5","6","1447",""
"25447","0","html-button-response","119","1485896","0.0-119.0","63ffcb367b500c516d0648a2","63ffcb367b500c516d0648a2_20240207","","","","4","3","1908",""
"5465","0","html-button-response","120","1491868","0.0-120.0","63ffcb367b500c516d0648a2","63ffcb367b500c516d0648a2_20240207","","","","3","4","1182",""
"9415","0","html-button-response","121","1501790","0.0-121.0","63ffcb367b500c516d0648a2","63ffcb367b500c516d0648a2_20240207","","","","8","6","369",""
"2914","0","html-button-response","122","1505207","0.0-122.0","63ffcb367b500c516d0648a2","63ffcb367b500c516d0648a2_20240207","","","","4","4","1009",""
"2684","0","html-button-response","123","1508399","0.0-123.0","63ffcb367b500c516d0648a2","63ffcb367b500c516d0648a2_20240207","","","","5","7","1697",""
"3306","0","html-button-response","124","1512211","0.0-124.0","63ffcb367b500c516d0648a2","63ffcb367b500c516d0648a2_20240207","","","","6","3","514",""
"2246","0","html-button-response","125","1514959","0.0-125.0","63ffcb367b500c516d0648a2","63ffcb367b500c516d0648a2_20240207","","","","3","4","1168",""
"3146","0","html-button-response","126","1518612","0.0-126.0","63ffcb367b500c516d0648a2","63ffcb367b500c516d0648a2_20240207","","","","5","3","1881",""
"1988","0","html-button-response","127","1521114","0.0-127.0","63ffcb367b500c516d0648a2","63ffcb367b500c516d0648a2_20240207","","","","6","3","1190",""
"2706","0","html-button-response","128","1524336","0.0-128.0","63ffcb367b500c516d0648a2","63ffcb367b500c516d0648a2_20240207","","","","7","6","1070",""
"2438","0","html-button-response","129","1527275","0.0-129.0","63ffcb367b500c516d0648a2","63ffcb367b500c516d0648a2_20240207","","","","4","4","1402",""
"157783","0","html-button-response","130","1685573","0.0-130.0","63ffcb367b500c516d0648a2","63ffcb367b500c516d0648a2_20240207","","","","4","4","259",""
"9015","0","html-button-response","131","1695089","0.0-131.0","63ffcb367b500c516d0648a2","63ffcb367b500c516d0648a2_20240207","","","","8","6","201",""
"2844","0","html-button-response","132","1698436","0.0-132.0","63ffcb367b500c516d0648a2","63ffcb367b500c516d0648a2_20240207","","","","4","3","416",""
"2108","0","html-button-response","133","1701046","0.0-133.0","63ffcb367b500c516d0648a2","63ffcb367b500c516d0648a2_20240207","","","","5","8","2073",""
"2739","0","html-button-response","134","1704301","0.0-134.0","63ffcb367b500c516d0648a2","63ffcb367b500c516d0648a2_20240207","","","","5","3","2078",""
"2210","0","html-button-response","135","1707025","0.0-135.0","63ffcb367b500c516d0648a2","63ffcb367b500c516d0648a2_20240207","","","","5","6","1446",""
"4436","0","html-button-response","136","1711964","0.0-136.0","63ffcb367b500c516d0648a2","63ffcb367b500c516d0648a2_20240207","","","","7","4","864",""
"2351","0","html-button-response","137","1714823","0.0-137.0","63ffcb367b500c516d0648a2","63ffcb367b500c516d0648a2_20240207","","","","6","2","728",""
"2559","0","html-button-response","138","1717886","0.0-138.0","63ffcb367b500c516d0648a2","63ffcb367b500c516d0648a2_20240207","","","","5","5","1109",""
"2330","0","html-button-response","139","1720732","0.0-139.0","63ffcb367b500c516d0648a2","63ffcb367b500c516d0648a2_20240207","","","","4","4","1508",""
"2413","0","html-button-response","140","1723648","0.0-140.0","63ffcb367b500c516d0648a2","63ffcb367b500c516d0648a2_20240207","","","","6","3","1360",""
"4026","0","html-button-response","141","1728175","0.0-141.0","63ffcb367b500c516d0648a2","63ffcb367b500c516d0648a2_20240207","","","","4","3","1287",""
"2815","0","html-button-response","142","1731493","0.0-142.0","63ffcb367b500c516d0648a2","63ffcb367b500c516d0648a2_20240207","","","","8","5","420",""
"3321","0","html-button-response","143","1735316","0.0-143.0","63ffcb367b500c516d0648a2","63ffcb367b500c516d0648a2_20240207","","","","6","2","712",""
"2128","0","html-button-response","144","1737946","0.0-144.0","63ffcb367b500c516d0648a2","63ffcb367b500c516d0648a2_20240207","","","","8","5","601",""
"134951","0","html-button-response","145","1873398","0.0-145.0","63ffcb367b500c516d0648a2","63ffcb367b500c516d0648a2_20240207","","","","5","6","1954",""
"3967","0","html-button-response","146","1877879","0.0-146.0","63ffcb367b500c516d0648a2","63ffcb367b500c516d0648a2_20240207","","","","7","2","681",""
"3302","0","html-button-response","147","1881686","0.0-147.0","63ffcb367b500c516d0648a2","63ffcb367b500c516d0648a2_20240207","","","","4","4","1350",""
"3811","0","html-button-response","148","1886011","0.0-148.0","63ffcb367b500c516d0648a2","63ffcb367b500c516d0648a2_20240207","","","","6","8","1536",""
"2599","0","html-button-response","149","1889117","0.0-149.0","63ffcb367b500c516d0648a2","63ffcb367b500c516d0648a2_20240207","","","","7","3","696",""
"3178","0","html-button-response","150","1892796","0.0-150.0","63ffcb367b500c516d0648a2","63ffcb367b500c516d0648a2_20240207","","","","5","6","1951",""
"2786","0","html-button-response","151","1896083","0.0-151.0","63ffcb367b500c516d0648a2","63ffcb367b500c516d0648a2_20240207","","","","8","6","367",""
"3229","0","html-button-response","152","1899814","0.0-152.0","63ffcb367b500c516d0648a2","63ffcb367b500c516d0648a2_20240207","","","","4","5","795",""
"2297","0","html-button-response","153","1902612","0.0-153.0","63ffcb367b500c516d0648a2","63ffcb367b500c516d0648a2_20240207","","","","5","7","1044",""
"119121","0","html-button-response","154","2022248","0.0-154.0","63ffcb367b500c516d0648a2","63ffcb367b500c516d0648a2_20240207","","","","5","7","1408",""
"2790","0","html-button-response","155","2025539","0.0-155.0","63ffcb367b500c516d0648a2","63ffcb367b500c516d0648a2_20240207","","","","5","6","1435",""
"2536","0","html-button-response","156","2028578","0.0-156.0","63ffcb367b500c516d0648a2","63ffcb367b500c516d0648a2_20240207","","","","5","3","415",""
"2683","0","html-button-response","157","2031762","0.0-157.0","63ffcb367b500c516d0648a2","63ffcb367b500c516d0648a2_20240207","","","","5","9","1875",""
"3507","0","html-button-response","158","2035783","0.0-158.0","63ffcb367b500c516d0648a2","63ffcb367b500c516d0648a2_20240207","","","","9","5","719",""
"2578","0","html-button-response","159","2038873","0.0-159.0","63ffcb367b500c516d0648a2","63ffcb367b500c516d0648a2_20240207","","","","5","2","883",""
"3097","0","html-button-response","160","2042471","0.0-160.0","63ffcb367b500c516d0648a2","63ffcb367b500c516d0648a2_20240207","","","","8","5","706",""
"2289","0","html-button-response","161","2045266","0.0-161.0","63ffcb367b500c516d0648a2","63ffcb367b500c516d0648a2_20240207","","","","3","5","826",""
"3419","0","html-button-response","162","2049195","0.0-162.0","63ffcb367b500c516d0648a2","63ffcb367b500c516d0648a2_20240207","","","","3","5","1998",""
"4492","0","html-button-response","163","2054198","0.0-163.0","63ffcb367b500c516d0648a2","63ffcb367b500c516d0648a2_20240207","","","","8","6","704",""
"3648","0","html-button-response","164","2058349","0.0-164.0","63ffcb367b500c516d0648a2","63ffcb367b500c516d0648a2_20240207","","","","4","4","2089",""
"2968","0","html-button-response","165","2061818","0.0-165.0","63ffcb367b500c516d0648a2","63ffcb367b500c516d0648a2_20240207","","","","3","4","822",""
"2102","0","html-button-response","166","2064436","0.0-166.0","63ffcb367b500c516d0648a2","63ffcb367b500c516d0648a2_20240207","","","","5","7","1925",""
"2547","0","html-button-response","167","2067484","0.0-167.0","63ffcb367b500c516d0648a2","63ffcb367b500c516d0648a2_20240207","","","","5","3","438",""
"2718","0","html-button-response","168","2070705","0.0-168.0","63ffcb367b500c516d0648a2","63ffcb367b500c516d0648a2_20240207","","","","5","6","1931",""
"2556","0","html-button-response","169","2073776","0.0-169.0","63ffcb367b500c516d0648a2","63ffcb367b500c516d0648a2_20240207","","","","5","7","1215",""
"3037","0","html-button-response","170","2077317","0.0-170.0","63ffcb367b500c516d0648a2","63ffcb367b500c516d0648a2_20240207","","","","4","4","1117",""
"2761","0","html-button-response","171","2080581","0.0-171.0","63ffcb367b500c516d0648a2","63ffcb367b500c516d0648a2_20240207","","","","4","4","632",""
"2361","0","html-button-response","172","2083445","0.0-172.0","63ffcb367b500c516d0648a2","63ffcb367b500c516d0648a2_20240207","","","","5","5","980",""
"2538","0","html-button-response","173","2086485","0.0-173.0","63ffcb367b500c516d0648a2","63ffcb367b500c516d0648a2_20240207","","","","5","7","1241",""
"13297","0","html-button-response","174","2100284","0.0-174.0","63ffcb367b500c516d0648a2","63ffcb367b500c516d0648a2_20240207","","","","4","4","1507",""
"3283","0","html-button-response","175","2104070","0.0-175.0","63ffcb367b500c516d0648a2","63ffcb367b500c516d0648a2_20240207","","","","8","5","254",""
"2875","0","html-button-response","176","2107457","0.0-176.0","63ffcb367b500c516d0648a2","63ffcb367b500c516d0648a2_20240207","","","","5","5","1920",""
"6472","0","html-button-response","177","2114444","0.0-177.0","63ffcb367b500c516d0648a2","63ffcb367b500c516d0648a2_20240207","","","","4","4","803",""
"1771","0","html-button-response","178","2116729","0.0-178.0","63ffcb367b500c516d0648a2","63ffcb367b500c516d0648a2_20240207","","","","8","5","241",""
"2205","0","html-button-response","179","2119439","0.0-179.0","63ffcb367b500c516d0648a2","63ffcb367b500c516d0648a2_20240207","","","","5","5","1800",""
"2923","0","html-button-response","180","2122868","0.0-180.0","63ffcb367b500c516d0648a2","63ffcb367b500c516d0648a2_20240207","","","","6","5","940",""
"2546","0","html-button-response","181","2125916","0.0-181.0","63ffcb367b500c516d0648a2","63ffcb367b500c516d0648a2_20240207","","","","9","6","887",""
"2765","0","html-button-response","182","2129182","0.0-182.0","63ffcb367b500c516d0648a2","63ffcb367b500c516d0648a2_20240207","","","","9","5","29",""
"1988","0","html-button-response","183","2131672","0.0-183.0","63ffcb367b500c516d0648a2","63ffcb367b500c516d0648a2_20240207","","","","5","2","1700",""
"301753","0","html-button-response","184","2433939","0.0-184.0","63ffcb367b500c516d0648a2","63ffcb367b500c516d0648a2_20240207","","","","4","5","1634",""
"2958","0","html-button-response","185","2437402","0.0-185.0","63ffcb367b500c516d0648a2","63ffcb367b500c516d0648a2_20240207","","","","4","4","2014",""
"2188","0","html-button-response","186","2440101","0.0-186.0","63ffcb367b500c516d0648a2","63ffcb367b500c516d0648a2_20240207","","","","7","5","591",""
"2561","0","html-button-response","187","2443163","0.0-187.0","63ffcb367b500c516d0648a2","63ffcb367b500c516d0648a2_20240207","","","","5","4","1087",""
"2148","0","html-button-response","188","2445813","0.0-188.0","63ffcb367b500c516d0648a2","63ffcb367b500c516d0648a2_20240207","","","","5","3","1415",""
"4055","0","html-button-response","189","2450370","0.0-189.0","63ffcb367b500c516d0648a2","63ffcb367b500c516d0648a2_20240207","","","","4","4","454",""
"2619","0","html-button-response","190","2453491","0.0-190.0","63ffcb367b500c516d0648a2","63ffcb367b500c516d0648a2_20240207","","","","5","7","2120",""
"2197","0","html-button-response","191","2456190","0.0-191.0","63ffcb367b500c516d0648a2","63ffcb367b500c516d0648a2_20240207","","","","6","7","1226",""
"5698","0","html-button-response","192","2462390","0.0-192.0","63ffcb367b500c516d0648a2","63ffcb367b500c516d0648a2_20240207","","","","5","8","1693",""
"2303","0","html-button-response","193","2465194","0.0-193.0","63ffcb367b500c516d0648a2","63ffcb367b500c516d0648a2_20240207","","","","5","3","1078",""
"66132","0","html-button-response","194","2531836","0.0-194.0","63ffcb367b500c516d0648a2","63ffcb367b500c516d0648a2_20240207","","","","5","8","1562",""
"3611","0","html-button-response","195","2535954","0.0-195.0","63ffcb367b500c516d0648a2","63ffcb367b500c516d0648a2_20240207","","","","6","3","1728",""
"2395","0","html-button-response","196","2538851","0.0-196.0","63ffcb367b500c516d0648a2","63ffcb367b500c516d0648a2_20240207","","","","8","2","695",""
"2273","0","html-button-response","197","2541633","0.0-197.0","63ffcb367b500c516d0648a2","63ffcb367b500c516d0648a2_20240207","","","","5","8","1383",""
"2327","0","html-button-response","198","2544465","0.0-198.0","63ffcb367b500c516d0648a2","63ffcb367b500c516d0648a2_20240207","","","","6","2","701",""
"5681","0","html-button-response","199","2550651","0.0-199.0","63ffcb367b500c516d0648a2","63ffcb367b500c516d0648a2_20240207","","","","6","5","664",""
"2031","0","html-button-response","200","2553192","0.0-200.0","63ffcb367b500c516d0648a2","63ffcb367b500c516d0648a2_20240207","","","","8","5","703",""
"2946","0","html-button-response","201","2556650","0.0-201.0","63ffcb367b500c516d0648a2","63ffcb367b500c516d0648a2_20240207","","","","8","3","176",""
"3331","0","html-button-response","202","2560482","0.0-202.0","63ffcb367b500c516d0648a2","63ffcb367b500c516d0648a2_20240207","","","","4","4","294",""
"2455","0","html-button-response","203","2563440","0.0-203.0","63ffcb367b500c516d0648a2","63ffcb367b500c516d0648a2_20240207","","","","8","5","173",""
"1907","0","html-button-response","204","2565856","0.0-204.0","63ffcb367b500c516d0648a2","63ffcb367b500c516d0648a2_20240207","","","","5","5","1854",""
"2605","0","html-button-response","205","2568963","0.0-205.0","63ffcb367b500c516d0648a2","63ffcb367b500c516d0648a2_20240207","","","","5","8","2057",""
"2529","0","html-button-response","206","2571994","0.0-206.0","63ffcb367b500c516d0648a2","63ffcb367b500c516d0648a2_20240207","","","","5","2","269",""
"2687","0","html-button-response","207","2575189","0.0-207.0","63ffcb367b500c516d0648a2","63ffcb367b500c516d0648a2_20240207","","","","7","6","863",""
"2995","0","html-button-response","208","2578693","0.0-208.0","63ffcb367b500c516d0648a2","63ffcb367b500c516d0648a2_20240207","","","","4","3","2079",""
"4072","0","html-button-response","209","2583269","0.0-209.0","63ffcb367b500c516d0648a2","63ffcb367b500c516d0648a2_20240207","","","","5","5","1007",""
"2549","0","html-button-response","210","2586319","0.0-210.0","63ffcb367b500c516d0648a2","63ffcb367b500c516d0648a2_20240207","","","","5","5","1606",""
"2468","0","html-button-response","211","2589302","0.0-211.0","63ffcb367b500c516d0648a2","63ffcb367b500c516d0648a2_20240207","","","","5","8","2045",""
"2192","0","html-button-response","212","2592009","0.0-212.0","63ffcb367b500c516d0648a2","63ffcb367b500c516d0648a2_20240207","","","","5","2","1699",""
"2070","0","html-button-response","213","2594581","0.0-213.0","63ffcb367b500c516d0648a2","63ffcb367b500c516d0648a2_20240207","","","","5","9","1704",""
"3413","0","html-button-response","214","2598501","0.0-214.0","63ffcb367b500c516d0648a2","63ffcb367b500c516d0648a2_20240207","","","","5","3","286",""
"2575","0","html-button-response","215","2601578","0.0-215.0","63ffcb367b500c516d0648a2","63ffcb367b500c516d0648a2_20240207","","","","7","3","206",""
"3545","0","html-button-response","216","2605624","0.0-216.0","63ffcb367b500c516d0648a2","63ffcb367b500c516d0648a2_20240207","","","","7","5","782",""
"2008","0","html-button-response","217","2608134","0.0-217.0","63ffcb367b500c516d0648a2","63ffcb367b500c516d0648a2_20240207","","","","5","4","2028",""
"4242","0","html-button-response","218","2612878","0.0-218.0","63ffcb367b500c516d0648a2","63ffcb367b500c516d0648a2_20240207","","","","6","4","749",""
"2600","0","html-button-response","219","2615991","0.0-219.0","63ffcb367b500c516d0648a2","63ffcb367b500c516d0648a2_20240207","","","","5","3","870",""
"2354","0","html-button-response","220","2618846","0.0-220.0","63ffcb367b500c516d0648a2","63ffcb367b500c516d0648a2_20240207","","","","5","7","1588",""
"3935","0","html-button-response","221","2623288","0.0-221.0","63ffcb367b500c516d0648a2","63ffcb367b500c516d0648a2_20240207","","","","6","4","483",""
"2430","0","html-button-response","222","2626227","0.0-222.0","63ffcb367b500c516d0648a2","63ffcb367b500c516d0648a2_20240207","","","","6","3","715",""
"2244","0","html-button-response","223","2628987","0.0-223.0","63ffcb367b500c516d0648a2","63ffcb367b500c516d0648a2_20240207","","","","5","8","1522",""
"195723","0","html-button-response","224","2825216","0.0-224.0","63ffcb367b500c516d0648a2","63ffcb367b500c516d0648a2_20240207","","","","5","2","894",""
"2826","0","html-button-response","225","2828557","0.0-225.0","63ffcb367b500c516d0648a2","63ffcb367b500c516d0648a2_20240207","","","Thank you. You have reached the end. 
                       <br>Click the button below to reveal your compensation.
                        <br><br>","","","","2107,1220,1307,1382,1667,170,532,1213,1364,1322,506,240,156,1397,1441,1022,1330,1492,179,1145,515,488,840,2017,338,409,886,1976,118,698,1209,1480,1338,1272,801,1815,789,1375,1628,579,2127,2183,1328,783,1036,1631,185,1194,1128,2160,1393,1801,1737,332,1887,327,104,1659,159,209,28,1542,32,473,1156,1362,1475,1424,1772,1224,1268,2097,88,571,1160,1779,1980,191,878,667,1917,1363,2021,1572,1170,641,1675,2077,1212,543,1910,1969,2123,110,1376,851,816,71,1705,1003,1462,25,384,59,448,1324,1323,516,1701,709,1417,1512,226,1447,1908,1182,369,1009,1697,514,1168,1881,1190,1070,1402,259,201,416,2073,2078,1446,864,728,1109,1508,1360,1287,420,712,601,1954,681,1350,1536,696,1951,367,795,1044,1408,1435,415,1875,719,883,706,826,1998,704,2089,822,1925,438,1931,1215,1117,632,980,1241,1507,254,1920,803,241,1800,940,887,29,1700,1634,2014,591,1087,1415,454,2120,1226,1693,1078,1562,1728,695,1383,701,664,703,176,294,173,1854,2057,269,863,2079,1007,1606,2045,1699,1704,286,206,782,2028,749,870,1588,483,715,1522,894"
