"rt","response","trial_type","trial_index","time_elapsed","internal_node_id","part_ID","ID_DATE","screen_id","understand_correct","stimulus","arousal","valence","img_id","tested_trial_idx"
"3450","0","html-button-response","0","3451","0.0-0.0","60ff1981688229d1e3eb43e9","60ff1981688229d1e3eb43e9_20240207","","","","","","",""
"7980","[object Object]","survey-html-form","1","11933","0.0-1.0","60ff1981688229d1e3eb43e9","60ff1981688229d1e3eb43e9_20240207","prolific_id_page","","","","","",""
"28633","0","html-button-response","2","40567","0.0-2.0","60ff1981688229d1e3eb43e9","60ff1981688229d1e3eb43e9_20240207","","","","","","",""
"149689","0","html-button-response","3","190761","0.0-3.0-0.0","60ff1981688229d1e3eb43e9","60ff1981688229d1e3eb43e9_20240207","","true","","","","",""
"1637","0","html-button-response","4","192901","0.0-4.0","60ff1981688229d1e3eb43e9","60ff1981688229d1e3eb43e9_20240207","","","
<div>
Great! You will now go on to rate the faces.
<br><br>
</div>
","","","",""
"5529","0","html-button-response","5","198933","0.0-5.0","60ff1981688229d1e3eb43e9","60ff1981688229d1e3eb43e9_20240207","","","","5","5","1836",""
"7880","0","html-button-response","6","207315","0.0-6.0","60ff1981688229d1e3eb43e9","60ff1981688229d1e3eb43e9_20240207","","","","5","2","712",""
"3232","0","html-button-response","7","211049","0.0-7.0","60ff1981688229d1e3eb43e9","60ff1981688229d1e3eb43e9_20240207","","","","5","5","954",""
"4908","0","html-button-response","8","216459","0.0-8.0","60ff1981688229d1e3eb43e9","60ff1981688229d1e3eb43e9_20240207","","","","6","2","1075",""
"4082","0","html-button-response","9","221043","0.0-9.0","60ff1981688229d1e3eb43e9","60ff1981688229d1e3eb43e9_20240207","","","","5","3","150",""
"6266","0","html-button-response","10","227811","0.0-10.0","60ff1981688229d1e3eb43e9","60ff1981688229d1e3eb43e9_20240207","","","","5","6","1951",""
"3396","0","html-button-response","11","231709","0.0-11.0","60ff1981688229d1e3eb43e9","60ff1981688229d1e3eb43e9_20240207","","","","5","5","1647",""
"8318","0","html-button-response","12","240529","0.0-12.0","60ff1981688229d1e3eb43e9","60ff1981688229d1e3eb43e9_20240207","","","","7","5","98",""
"2444","0","html-button-response","13","243477","0.0-13.0","60ff1981688229d1e3eb43e9","60ff1981688229d1e3eb43e9_20240207","","","","5","5","825",""
"8158","0","html-button-response","14","252137","0.0-14.0","60ff1981688229d1e3eb43e9","60ff1981688229d1e3eb43e9_20240207","","","","7","7","1253",""
"5778","0","html-button-response","15","258417","0.0-15.0","60ff1981688229d1e3eb43e9","60ff1981688229d1e3eb43e9_20240207","","","","6","2","1400",""
"4630","0","html-button-response","16","263549","0.0-16.0","60ff1981688229d1e3eb43e9","60ff1981688229d1e3eb43e9_20240207","","","","7","9","1864",""
"2368","0","html-button-response","17","266419","0.0-17.0","60ff1981688229d1e3eb43e9","60ff1981688229d1e3eb43e9_20240207","","","","5","5","1147",""
"5254","0","html-button-response","18","272176","0.0-18.0","60ff1981688229d1e3eb43e9","60ff1981688229d1e3eb43e9_20240207","","","","4","3","1270",""
"3867","0","html-button-response","19","276543","0.0-19.0","60ff1981688229d1e3eb43e9","60ff1981688229d1e3eb43e9_20240207","","","","5","3","571",""
"2807","0","html-button-response","20","279853","0.0-20.0","60ff1981688229d1e3eb43e9","60ff1981688229d1e3eb43e9_20240207","","","","5","5","2184",""
"1992","0","html-button-response","21","282347","0.0-21.0","60ff1981688229d1e3eb43e9","60ff1981688229d1e3eb43e9_20240207","","","","5","5","1173",""
"4205","0","html-button-response","22","287054","0.0-22.0","60ff1981688229d1e3eb43e9","60ff1981688229d1e3eb43e9_20240207","","","","6","6","1604",""
"4407","0","html-button-response","23","291963","0.0-23.0","60ff1981688229d1e3eb43e9","60ff1981688229d1e3eb43e9_20240207","","","","6","3","1768",""
"2050","0","html-button-response","24","294516","0.0-24.0","60ff1981688229d1e3eb43e9","60ff1981688229d1e3eb43e9_20240207","","","","5","5","1852",""
"5679","0","html-button-response","25","300697","0.0-25.0","60ff1981688229d1e3eb43e9","60ff1981688229d1e3eb43e9_20240207","","","","8","5","222",""
"2176","0","html-button-response","26","303376","0.0-26.0","60ff1981688229d1e3eb43e9","60ff1981688229d1e3eb43e9_20240207","","","","5","5","802",""
"3513","0","html-button-response","27","307390","0.0-27.0","60ff1981688229d1e3eb43e9","60ff1981688229d1e3eb43e9_20240207","","","","8","5","46",""
"3951","0","html-button-response","28","311842","0.0-28.0","60ff1981688229d1e3eb43e9","60ff1981688229d1e3eb43e9_20240207","","","","6","6","1628",""
"2424","0","html-button-response","29","314768","0.0-29.0","60ff1981688229d1e3eb43e9","60ff1981688229d1e3eb43e9_20240207","","","","5","5","762",""
"4744","0","html-button-response","30","320014","0.0-30.0","60ff1981688229d1e3eb43e9","60ff1981688229d1e3eb43e9_20240207","","","","8","8","859",""
"2794","0","html-button-response","31","323310","0.0-31.0","60ff1981688229d1e3eb43e9","60ff1981688229d1e3eb43e9_20240207","","","","8","8","1366",""
"2337","0","html-button-response","32","326150","0.0-32.0","60ff1981688229d1e3eb43e9","60ff1981688229d1e3eb43e9_20240207","","","","5","5","1493",""
"2413","0","html-button-response","33","329066","0.0-33.0","60ff1981688229d1e3eb43e9","60ff1981688229d1e3eb43e9_20240207","","","","6","8","1239",""
"2685","0","html-button-response","34","332254","0.0-34.0","60ff1981688229d1e3eb43e9","60ff1981688229d1e3eb43e9_20240207","","","","7","8","1892",""
"3324","0","html-button-response","35","336080","0.0-35.0","60ff1981688229d1e3eb43e9","60ff1981688229d1e3eb43e9_20240207","","","","5","3","780",""
"5556","0","html-button-response","36","342138","0.0-36.0","60ff1981688229d1e3eb43e9","60ff1981688229d1e3eb43e9_20240207","","","","4","3","746",""
"3255","0","html-button-response","37","345896","0.0-37.0","60ff1981688229d1e3eb43e9","60ff1981688229d1e3eb43e9_20240207","","","","8","8","1356",""
"7933","0","html-button-response","38","354332","0.0-38.0","60ff1981688229d1e3eb43e9","60ff1981688229d1e3eb43e9_20240207","","","","8","3","640",""
"4043","0","html-button-response","39","358876","0.0-39.0","60ff1981688229d1e3eb43e9","60ff1981688229d1e3eb43e9_20240207","","","","4","4","648",""
"2609","0","html-button-response","40","361986","0.0-40.0","60ff1981688229d1e3eb43e9","60ff1981688229d1e3eb43e9_20240207","","","","5","3","567",""
"4144","0","html-button-response","41","366632","0.0-41.0","60ff1981688229d1e3eb43e9","60ff1981688229d1e3eb43e9_20240207","","","","7","6","915",""
"2878","0","html-button-response","42","370012","0.0-42.0","60ff1981688229d1e3eb43e9","60ff1981688229d1e3eb43e9_20240207","","","","4","3","1468",""
"3726","0","html-button-response","43","374241","0.0-43.0","60ff1981688229d1e3eb43e9","60ff1981688229d1e3eb43e9_20240207","","","","5","5","990",""
"3533","0","html-button-response","44","378276","0.0-44.0","60ff1981688229d1e3eb43e9","60ff1981688229d1e3eb43e9_20240207","","","","5","4","2166",""
"6312","0","html-button-response","45","385090","0.0-45.0","60ff1981688229d1e3eb43e9","60ff1981688229d1e3eb43e9_20240207","","","","6","6","1106",""
"4544","0","html-button-response","46","390136","0.0-46.0","60ff1981688229d1e3eb43e9","60ff1981688229d1e3eb43e9_20240207","","","","7","1","1023",""
"2377","0","html-button-response","47","393014","0.0-47.0","60ff1981688229d1e3eb43e9","60ff1981688229d1e3eb43e9_20240207","","","","5","2","1959",""
"4430","0","html-button-response","48","397946","0.0-48.0","60ff1981688229d1e3eb43e9","60ff1981688229d1e3eb43e9_20240207","","","","6","6","2161",""
"2169","0","html-button-response","49","400616","0.0-49.0","60ff1981688229d1e3eb43e9","60ff1981688229d1e3eb43e9_20240207","","","","5","5","995",""
"2123","0","html-button-response","50","403240","0.0-50.0","60ff1981688229d1e3eb43e9","60ff1981688229d1e3eb43e9_20240207","","","","4","3","1389",""
"1903","0","html-button-response","51","405646","0.0-51.0","60ff1981688229d1e3eb43e9","60ff1981688229d1e3eb43e9_20240207","","","","5","5","1672",""
"3343","0","html-button-response","52","409490","0.0-52.0","60ff1981688229d1e3eb43e9","60ff1981688229d1e3eb43e9_20240207","","","","5","3","1947",""
"2306","0","html-button-response","53","412298","0.0-53.0","60ff1981688229d1e3eb43e9","60ff1981688229d1e3eb43e9_20240207","","","","5","3","584",""
"5833","0","html-button-response","54","418633","0.0-54.0","60ff1981688229d1e3eb43e9","60ff1981688229d1e3eb43e9_20240207","","","","9","5","716",""
"4930","0","html-button-response","55","424066","0.0-55.0","60ff1981688229d1e3eb43e9","60ff1981688229d1e3eb43e9_20240207","","","","4","4","1739",""
"2228","0","html-button-response","56","426796","0.0-56.0","60ff1981688229d1e3eb43e9","60ff1981688229d1e3eb43e9_20240207","","","","5","5","1321",""
"4129","0","html-button-response","57","431427","0.0-57.0","60ff1981688229d1e3eb43e9","60ff1981688229d1e3eb43e9_20240207","","","","7","7","1756",""
"2616","0","html-button-response","58","434545","0.0-58.0","60ff1981688229d1e3eb43e9","60ff1981688229d1e3eb43e9_20240207","","","","5","3","1090",""
"3526","0","html-button-response","59","438573","0.0-59.0","60ff1981688229d1e3eb43e9","60ff1981688229d1e3eb43e9_20240207","","","","5","2","1558",""
"4739","0","html-button-response","60","443813","0.0-60.0","60ff1981688229d1e3eb43e9","60ff1981688229d1e3eb43e9_20240207","","","","8","7","1561",""
"2323","0","html-button-response","61","446637","0.0-61.0","60ff1981688229d1e3eb43e9","60ff1981688229d1e3eb43e9_20240207","","","","5","5","835",""
"3093","0","html-button-response","62","450233","0.0-62.0","60ff1981688229d1e3eb43e9","60ff1981688229d1e3eb43e9_20240207","","","","4","3","948",""
"2277","0","html-button-response","63","453011","0.0-63.0","60ff1981688229d1e3eb43e9","60ff1981688229d1e3eb43e9_20240207","","","","5","4","2009",""
"2854","0","html-button-response","64","456367","0.0-64.0","60ff1981688229d1e3eb43e9","60ff1981688229d1e3eb43e9_20240207","","","","5","4","803",""
"6244","0","html-button-response","65","463113","0.0-65.0","60ff1981688229d1e3eb43e9","60ff1981688229d1e3eb43e9_20240207","","","","7","5","373",""
"2206","0","html-button-response","66","465821","0.0-66.0","60ff1981688229d1e3eb43e9","60ff1981688229d1e3eb43e9_20240207","","","","5","5","1464",""
"2817","0","html-button-response","67","469141","0.0-67.0","60ff1981688229d1e3eb43e9","60ff1981688229d1e3eb43e9_20240207","","","","5","5","800",""
"5271","0","html-button-response","68","474913","0.0-68.0","60ff1981688229d1e3eb43e9","60ff1981688229d1e3eb43e9_20240207","","","","9","5","695",""
"3318","0","html-button-response","69","478733","0.0-69.0","60ff1981688229d1e3eb43e9","60ff1981688229d1e3eb43e9_20240207","","","","5","3","1764",""
"3603","0","html-button-response","70","482837","0.0-70.0","60ff1981688229d1e3eb43e9","60ff1981688229d1e3eb43e9_20240207","","","","8","4","395",""
"2092","0","html-button-response","71","485431","0.0-71.0","60ff1981688229d1e3eb43e9","60ff1981688229d1e3eb43e9_20240207","","","","8","4","684",""
"2354","0","html-button-response","72","488287","0.0-72.0","60ff1981688229d1e3eb43e9","60ff1981688229d1e3eb43e9_20240207","","","","5","5","1815",""
"4058","0","html-button-response","73","492847","0.0-73.0","60ff1981688229d1e3eb43e9","60ff1981688229d1e3eb43e9_20240207","","","","9","6","781",""
"6675","0","html-button-response","74","500025","0.0-74.0","60ff1981688229d1e3eb43e9","60ff1981688229d1e3eb43e9_20240207","","","","9","3","328",""
"4313","0","html-button-response","75","504841","0.0-75.0","60ff1981688229d1e3eb43e9","60ff1981688229d1e3eb43e9_20240207","","","","8","5","249",""
"2455","0","html-button-response","76","507797","0.0-76.0","60ff1981688229d1e3eb43e9","60ff1981688229d1e3eb43e9_20240207","","","","9","5","2",""
"4376","0","html-button-response","77","512675","0.0-77.0","60ff1981688229d1e3eb43e9","60ff1981688229d1e3eb43e9_20240207","","","","6","4","569",""
"2074","0","html-button-response","78","515252","0.0-78.0","60ff1981688229d1e3eb43e9","60ff1981688229d1e3eb43e9_20240207","","","","5","5","766",""
"2076","0","html-button-response","79","517830","0.0-79.0","60ff1981688229d1e3eb43e9","60ff1981688229d1e3eb43e9_20240207","","","","5","5","775",""
"3234","0","html-button-response","80","521565","0.0-80.0","60ff1981688229d1e3eb43e9","60ff1981688229d1e3eb43e9_20240207","","","","6","7","2122",""
"2994","0","html-button-response","81","525061","0.0-81.0","60ff1981688229d1e3eb43e9","60ff1981688229d1e3eb43e9_20240207","","","","4","3","1102",""
"4012","0","html-button-response","82","529576","0.0-82.0","60ff1981688229d1e3eb43e9","60ff1981688229d1e3eb43e9_20240207","","","","7","9","2046",""
"4807","0","html-button-response","83","534885","0.0-83.0","60ff1981688229d1e3eb43e9","60ff1981688229d1e3eb43e9_20240207","","","","5","1","519",""
"2214","0","html-button-response","84","537601","0.0-84.0","60ff1981688229d1e3eb43e9","60ff1981688229d1e3eb43e9_20240207","","","","5","4","1292",""
"3302","0","html-button-response","85","541405","0.0-85.0","60ff1981688229d1e3eb43e9","60ff1981688229d1e3eb43e9_20240207","","","","8","8","2048",""
"5378","0","html-button-response","86","547285","0.0-86.0","60ff1981688229d1e3eb43e9","60ff1981688229d1e3eb43e9_20240207","","","","7","1","520",""
"2531","0","html-button-response","87","550317","0.0-87.0","60ff1981688229d1e3eb43e9","60ff1981688229d1e3eb43e9_20240207","","","","5","3","817",""
"5093","0","html-button-response","88","555914","0.0-88.0","60ff1981688229d1e3eb43e9","60ff1981688229d1e3eb43e9_20240207","","","","7","5","238",""
"3604","0","html-button-response","89","560020","0.0-89.0","60ff1981688229d1e3eb43e9","60ff1981688229d1e3eb43e9_20240207","","","","7","2","2053",""
"4073","0","html-button-response","90","564595","0.0-90.0","60ff1981688229d1e3eb43e9","60ff1981688229d1e3eb43e9_20240207","","","","8","7","2134",""
"2438","0","html-button-response","91","567535","0.0-91.0","60ff1981688229d1e3eb43e9","60ff1981688229d1e3eb43e9_20240207","","","","5","3","1599",""
"4161","0","html-button-response","92","572197","0.0-92.0","60ff1981688229d1e3eb43e9","60ff1981688229d1e3eb43e9_20240207","","","","8","6","218",""
"2754","0","html-button-response","93","575453","0.0-93.0","60ff1981688229d1e3eb43e9","60ff1981688229d1e3eb43e9_20240207","","","","5","3","1257",""
"2052","0","html-button-response","94","578008","0.0-94.0","60ff1981688229d1e3eb43e9","60ff1981688229d1e3eb43e9_20240207","","","","5","5","1316",""
"5835","0","html-button-response","95","584344","0.0-95.0","60ff1981688229d1e3eb43e9","60ff1981688229d1e3eb43e9_20240207","","","","9","5","199",""
"3951","0","html-button-response","96","588796","0.0-96.0","60ff1981688229d1e3eb43e9","60ff1981688229d1e3eb43e9_20240207","","","","5","2","1091",""
"2170","0","html-button-response","97","591468","0.0-97.0","60ff1981688229d1e3eb43e9","60ff1981688229d1e3eb43e9_20240207","","","","5","5","967",""
"3894","0","html-button-response","98","595864","0.0-98.0","60ff1981688229d1e3eb43e9","60ff1981688229d1e3eb43e9_20240207","","","","6","7","1327",""
"3034","0","html-button-response","99","599399","0.0-99.0","60ff1981688229d1e3eb43e9","60ff1981688229d1e3eb43e9_20240207","","","","5","3","675",""
"3200","0","html-button-response","100","603101","0.0-100.0","60ff1981688229d1e3eb43e9","60ff1981688229d1e3eb43e9_20240207","","","","7","7","761",""
"3164","0","html-button-response","101","606768","0.0-101.0","60ff1981688229d1e3eb43e9","60ff1981688229d1e3eb43e9_20240207","","","","6","8","1630",""
"3919","0","html-button-response","102","611188","0.0-102.0","60ff1981688229d1e3eb43e9","60ff1981688229d1e3eb43e9_20240207","","","","5","8","1613",""
"2761","0","html-button-response","103","614451","0.0-103.0","60ff1981688229d1e3eb43e9","60ff1981688229d1e3eb43e9_20240207","","","","6","9","1918",""
"2354","0","html-button-response","104","617308","0.0-104.0","60ff1981688229d1e3eb43e9","60ff1981688229d1e3eb43e9_20240207","","","","8","9","2036",""
"3326","0","html-button-response","105","621136","0.0-105.0","60ff1981688229d1e3eb43e9","60ff1981688229d1e3eb43e9_20240207","","","","6","8","1082",""
"2637","0","html-button-response","106","624275","0.0-106.0","60ff1981688229d1e3eb43e9","60ff1981688229d1e3eb43e9_20240207","","","","9","9","2047",""
"2423","0","html-button-response","107","627200","0.0-107.0","60ff1981688229d1e3eb43e9","60ff1981688229d1e3eb43e9_20240207","","","","5","2","1625",""
"3695","0","html-button-response","108","631398","0.0-108.0","60ff1981688229d1e3eb43e9","60ff1981688229d1e3eb43e9_20240207","","","","8","5","912",""
"2590","0","html-button-response","109","634490","0.0-109.0","60ff1981688229d1e3eb43e9","60ff1981688229d1e3eb43e9_20240207","","","","7","7","1952",""
"2424","0","html-button-response","110","637416","0.0-110.0","60ff1981688229d1e3eb43e9","60ff1981688229d1e3eb43e9_20240207","","","","5","4","2190",""
"2483","0","html-button-response","111","640402","0.0-111.0","60ff1981688229d1e3eb43e9","60ff1981688229d1e3eb43e9_20240207","","","","5","3","1492",""
"2353","0","html-button-response","112","643256","0.0-112.0","60ff1981688229d1e3eb43e9","60ff1981688229d1e3eb43e9_20240207","","","","5","7","1990",""
"2150","0","html-button-response","113","645910","0.0-113.0","60ff1981688229d1e3eb43e9","60ff1981688229d1e3eb43e9_20240207","","","","5","2","543",""
"2077","0","html-button-response","114","648488","0.0-114.0","60ff1981688229d1e3eb43e9","60ff1981688229d1e3eb43e9_20240207","","","","5","4","2152",""
"3002","0","html-button-response","115","651992","0.0-115.0","60ff1981688229d1e3eb43e9","60ff1981688229d1e3eb43e9_20240207","","","","5","3","220",""
"5208","0","html-button-response","116","657702","0.0-116.0","60ff1981688229d1e3eb43e9","60ff1981688229d1e3eb43e9_20240207","","","","9","4","275",""
"2228","0","html-button-response","117","660432","0.0-117.0","60ff1981688229d1e3eb43e9","60ff1981688229d1e3eb43e9_20240207","","","","7","4","618",""
"5148","0","html-button-response","118","666082","0.0-118.0","60ff1981688229d1e3eb43e9","60ff1981688229d1e3eb43e9_20240207","","","","7","2","1048",""
"2946","0","html-button-response","119","669531","0.0-119.0","60ff1981688229d1e3eb43e9","60ff1981688229d1e3eb43e9_20240207","","","","7","7","2094",""
"3080","0","html-button-response","120","673111","0.0-120.0","60ff1981688229d1e3eb43e9","60ff1981688229d1e3eb43e9_20240207","","","","4","3","831",""
"2337","0","html-button-response","121","675951","0.0-121.0","60ff1981688229d1e3eb43e9","60ff1981688229d1e3eb43e9_20240207","","","","5","4","1505",""
"1990","0","html-button-response","122","678443","0.0-122.0","60ff1981688229d1e3eb43e9","60ff1981688229d1e3eb43e9_20240207","","","","5","5","1799",""
"3286","0","html-button-response","123","682233","0.0-123.0","60ff1981688229d1e3eb43e9","60ff1981688229d1e3eb43e9_20240207","","","","8","6","889",""
"4137","0","html-button-response","124","686871","0.0-124.0","60ff1981688229d1e3eb43e9","60ff1981688229d1e3eb43e9_20240207","","","","6","7","1280",""
"4219","0","html-button-response","125","691593","0.0-125.0","60ff1981688229d1e3eb43e9","60ff1981688229d1e3eb43e9_20240207","","","","6","3","1582",""
"2877","0","html-button-response","126","694973","0.0-126.0","60ff1981688229d1e3eb43e9","60ff1981688229d1e3eb43e9_20240207","","","","7","6","706",""
"2269","0","html-button-response","127","697743","0.0-127.0","60ff1981688229d1e3eb43e9","60ff1981688229d1e3eb43e9_20240207","","","","6","6","86",""
"4584","0","html-button-response","128","702829","0.0-128.0","60ff1981688229d1e3eb43e9","60ff1981688229d1e3eb43e9_20240207","","","","5","2","933",""
"2306","0","html-button-response","129","705637","0.0-129.0","60ff1981688229d1e3eb43e9","60ff1981688229d1e3eb43e9_20240207","","","","5","4","942",""
"3219","0","html-button-response","130","709357","0.0-130.0","60ff1981688229d1e3eb43e9","60ff1981688229d1e3eb43e9_20240207","","","","6","7","2111",""
"4029","0","html-button-response","131","713887","0.0-131.0","60ff1981688229d1e3eb43e9","60ff1981688229d1e3eb43e9_20240207","","","","7","8","1862",""
"2817","0","html-button-response","132","717205","0.0-132.0","60ff1981688229d1e3eb43e9","60ff1981688229d1e3eb43e9_20240207","","","","5","3","1829",""
"3156","0","html-button-response","133","720863","0.0-133.0","60ff1981688229d1e3eb43e9","60ff1981688229d1e3eb43e9_20240207","","","","5","2","1559",""
"3998","0","html-button-response","134","725363","0.0-134.0","60ff1981688229d1e3eb43e9","60ff1981688229d1e3eb43e9_20240207","","","","8","8","1201",""
"2732","0","html-button-response","135","728597","0.0-135.0","60ff1981688229d1e3eb43e9","60ff1981688229d1e3eb43e9_20240207","","","","6","7","1955",""
"4406","0","html-button-response","136","733505","0.0-136.0","60ff1981688229d1e3eb43e9","60ff1981688229d1e3eb43e9_20240207","","","","3","5","299",""
"2748","0","html-button-response","137","736755","0.0-137.0","60ff1981688229d1e3eb43e9","60ff1981688229d1e3eb43e9_20240207","","","","4","4","1986",""
"5076","0","html-button-response","138","742333","0.0-138.0","60ff1981688229d1e3eb43e9","60ff1981688229d1e3eb43e9_20240207","","","","6","2","1883",""
"4439","0","html-button-response","139","747274","0.0-139.0","60ff1981688229d1e3eb43e9","60ff1981688229d1e3eb43e9_20240207","","","","7","5","665",""
"3557","0","html-button-response","140","751333","0.0-140.0","60ff1981688229d1e3eb43e9","60ff1981688229d1e3eb43e9_20240207","","","","6","1","689",""
"4491","0","html-button-response","141","756325","0.0-141.0","60ff1981688229d1e3eb43e9","60ff1981688229d1e3eb43e9_20240207","","","","7","3","282",""
"2128","0","html-button-response","142","758957","0.0-142.0","60ff1981688229d1e3eb43e9","60ff1981688229d1e3eb43e9_20240207","","","","5","5","1945",""
"11998","0","html-button-response","143","771457","0.0-143.0","60ff1981688229d1e3eb43e9","60ff1981688229d1e3eb43e9_20240207","","","","8","5","327",""
"3728","0","html-button-response","144","775687","0.0-144.0","60ff1981688229d1e3eb43e9","60ff1981688229d1e3eb43e9_20240207","","","","6","3","1766",""
"3696","0","html-button-response","145","779885","0.0-145.0","60ff1981688229d1e3eb43e9","60ff1981688229d1e3eb43e9_20240207","","","","7","7","1795",""
"3396","0","html-button-response","146","783783","0.0-146.0","60ff1981688229d1e3eb43e9","60ff1981688229d1e3eb43e9_20240207","","","","8","6","355",""
"2445","0","html-button-response","147","786729","0.0-147.0","60ff1981688229d1e3eb43e9","60ff1981688229d1e3eb43e9_20240207","","","","6","6","836",""
"2579","0","html-button-response","148","789811","0.0-148.0","60ff1981688229d1e3eb43e9","60ff1981688229d1e3eb43e9_20240207","","","","7","6","508",""
"4736","0","html-button-response","149","795050","0.0-149.0","60ff1981688229d1e3eb43e9","60ff1981688229d1e3eb43e9_20240207","","","","6","4","102",""
"4468","0","html-button-response","150","800020","0.0-150.0","60ff1981688229d1e3eb43e9","60ff1981688229d1e3eb43e9_20240207","","","","8","4","54",""
"2571","0","html-button-response","151","803092","0.0-151.0","60ff1981688229d1e3eb43e9","60ff1981688229d1e3eb43e9_20240207","","","","7","3","1533",""
"2362","0","html-button-response","152","805956","0.0-152.0","60ff1981688229d1e3eb43e9","60ff1981688229d1e3eb43e9_20240207","","","","6","4","1140",""
"2667","0","html-button-response","153","809126","0.0-153.0","60ff1981688229d1e3eb43e9","60ff1981688229d1e3eb43e9_20240207","","","","5","5","2192",""
"1790","0","html-button-response","154","811418","0.0-154.0","60ff1981688229d1e3eb43e9","60ff1981688229d1e3eb43e9_20240207","","","","5","5","1994",""
"2941","0","html-button-response","155","814859","0.0-155.0","60ff1981688229d1e3eb43e9","60ff1981688229d1e3eb43e9_20240207","","","","5","4","1337",""
"2850","0","html-button-response","156","818210","0.0-156.0","60ff1981688229d1e3eb43e9","60ff1981688229d1e3eb43e9_20240207","","","","5","8","1382",""
"2879","0","html-button-response","157","821590","0.0-157.0","60ff1981688229d1e3eb43e9","60ff1981688229d1e3eb43e9_20240207","","","","9","5","235",""
"4443","0","html-button-response","158","826536","0.0-158.0","60ff1981688229d1e3eb43e9","60ff1981688229d1e3eb43e9_20240207","","","","6","9","1747",""
"2524","0","html-button-response","159","829562","0.0-159.0","60ff1981688229d1e3eb43e9","60ff1981688229d1e3eb43e9_20240207","","","","5","7","738",""
"2091","0","html-button-response","160","832154","0.0-160.0","60ff1981688229d1e3eb43e9","60ff1981688229d1e3eb43e9_20240207","","","","5","6","1470",""
"3388","0","html-button-response","161","836044","0.0-161.0","60ff1981688229d1e3eb43e9","60ff1981688229d1e3eb43e9_20240207","","","","8","5","227",""
"3742","0","html-button-response","162","840288","0.0-162.0","60ff1981688229d1e3eb43e9","60ff1981688229d1e3eb43e9_20240207","","","","7","4","194",""
"3281","0","html-button-response","163","844070","0.0-163.0","60ff1981688229d1e3eb43e9","60ff1981688229d1e3eb43e9_20240207","","","","8","4","135",""
"3170","0","html-button-response","164","847742","0.0-164.0","60ff1981688229d1e3eb43e9","60ff1981688229d1e3eb43e9_20240207","","","","5","3","251",""
"2238","0","html-button-response","165","850482","0.0-165.0","60ff1981688229d1e3eb43e9","60ff1981688229d1e3eb43e9_20240207","","","","5","2","2002",""
"7038","0","html-button-response","166","858022","0.0-166.0","60ff1981688229d1e3eb43e9","60ff1981688229d1e3eb43e9_20240207","","","","5","3","1284",""
"2670","0","html-button-response","167","861194","0.0-167.0","60ff1981688229d1e3eb43e9","60ff1981688229d1e3eb43e9_20240207","","","","5","7","2087",""
"2837","0","html-button-response","168","864534","0.0-168.0","60ff1981688229d1e3eb43e9","60ff1981688229d1e3eb43e9_20240207","","","","9","9","848",""
"2530","0","html-button-response","169","867566","0.0-169.0","60ff1981688229d1e3eb43e9","60ff1981688229d1e3eb43e9_20240207","","","","5","3","1156",""
"1735","0","html-button-response","170","869804","0.0-170.0","60ff1981688229d1e3eb43e9","60ff1981688229d1e3eb43e9_20240207","","","","5","5","1138",""
"2562","0","html-button-response","171","872868","0.0-171.0","60ff1981688229d1e3eb43e9","60ff1981688229d1e3eb43e9_20240207","","","","6","8","2085",""
"3518","0","html-button-response","172","876888","0.0-172.0","60ff1981688229d1e3eb43e9","60ff1981688229d1e3eb43e9_20240207","","","","7","3","136",""
"2030","0","html-button-response","173","879420","0.0-173.0","60ff1981688229d1e3eb43e9","60ff1981688229d1e3eb43e9_20240207","","","","6","8","1732",""
"2717","0","html-button-response","174","882638","0.0-174.0","60ff1981688229d1e3eb43e9","60ff1981688229d1e3eb43e9_20240207","","","","6","8","1423",""
"2962","0","html-button-response","175","886102","0.0-175.0","60ff1981688229d1e3eb43e9","60ff1981688229d1e3eb43e9_20240207","","","","6","2","1443",""
"2021","0","html-button-response","176","888626","0.0-176.0","60ff1981688229d1e3eb43e9","60ff1981688229d1e3eb43e9_20240207","","","","7","8","1704",""
"1944","0","html-button-response","177","891072","0.0-177.0","60ff1981688229d1e3eb43e9","60ff1981688229d1e3eb43e9_20240207","","","","8","8","1017",""
"1922","0","html-button-response","178","893496","0.0-178.0","60ff1981688229d1e3eb43e9","60ff1981688229d1e3eb43e9_20240207","","","","5","5","1669",""
"3771","0","html-button-response","179","897770","0.0-179.0","60ff1981688229d1e3eb43e9","60ff1981688229d1e3eb43e9_20240207","","","","8","5","730",""
"3788","0","html-button-response","180","902060","0.0-180.0","60ff1981688229d1e3eb43e9","60ff1981688229d1e3eb43e9_20240207","","","","7","3","402",""
"2275","0","html-button-response","181","904839","0.0-181.0","60ff1981688229d1e3eb43e9","60ff1981688229d1e3eb43e9_20240207","","","","7","3","668",""
"2254","0","html-button-response","182","907594","0.0-182.0","60ff1981688229d1e3eb43e9","60ff1981688229d1e3eb43e9_20240207","","","","5","5","1504",""
"2060","0","html-button-response","183","910157","0.0-183.0","60ff1981688229d1e3eb43e9","60ff1981688229d1e3eb43e9_20240207","","","","6","2","1077",""
"2052","0","html-button-response","184","912710","0.0-184.0","60ff1981688229d1e3eb43e9","60ff1981688229d1e3eb43e9_20240207","","","","6","8","1226",""
"2252","0","html-button-response","185","915464","0.0-185.0","60ff1981688229d1e3eb43e9","60ff1981688229d1e3eb43e9_20240207","","","","5","3","1906",""
"2362","0","html-button-response","186","918328","0.0-186.0","60ff1981688229d1e3eb43e9","60ff1981688229d1e3eb43e9_20240207","","","","5","5","1810",""
"2848","0","html-button-response","187","921678","0.0-187.0","60ff1981688229d1e3eb43e9","60ff1981688229d1e3eb43e9_20240207","","","","5","2","1833",""
"3656","0","html-button-response","188","925836","0.0-188.0","60ff1981688229d1e3eb43e9","60ff1981688229d1e3eb43e9_20240207","","","","5","3","388",""
"3550","0","html-button-response","189","929888","0.0-189.0","60ff1981688229d1e3eb43e9","60ff1981688229d1e3eb43e9_20240207","","","","8","4","782",""
"2337","0","html-button-response","190","932728","0.0-190.0","60ff1981688229d1e3eb43e9","60ff1981688229d1e3eb43e9_20240207","","","","7","5","786",""
"2368","0","html-button-response","191","935599","0.0-191.0","60ff1981688229d1e3eb43e9","60ff1981688229d1e3eb43e9_20240207","","","","9","5","382",""
"3087","0","html-button-response","192","939186","0.0-192.0","60ff1981688229d1e3eb43e9","60ff1981688229d1e3eb43e9_20240207","","","","6","4","904",""
"2685","0","html-button-response","193","942373","0.0-193.0","60ff1981688229d1e3eb43e9","60ff1981688229d1e3eb43e9_20240207","","","","5","2","1612",""
"3512","0","html-button-response","194","946387","0.0-194.0","60ff1981688229d1e3eb43e9","60ff1981688229d1e3eb43e9_20240207","","","","6","6","1314",""
"2429","0","html-button-response","195","949318","0.0-195.0","60ff1981688229d1e3eb43e9","60ff1981688229d1e3eb43e9_20240207","","","","5","4","1675",""
"2099","0","html-button-response","196","951918","0.0-196.0","60ff1981688229d1e3eb43e9","60ff1981688229d1e3eb43e9_20240207","","","","5","4","1183",""
"3343","0","html-button-response","197","955762","0.0-197.0","60ff1981688229d1e3eb43e9","60ff1981688229d1e3eb43e9_20240207","","","","5","3","892",""
"2584","0","html-button-response","198","958849","0.0-198.0","60ff1981688229d1e3eb43e9","60ff1981688229d1e3eb43e9_20240207","","","","4","3","323",""
"3782","0","html-button-response","199","963132","0.0-199.0","60ff1981688229d1e3eb43e9","60ff1981688229d1e3eb43e9_20240207","","","","8","5","446",""
"2137","0","html-button-response","200","965771","0.0-200.0","60ff1981688229d1e3eb43e9","60ff1981688229d1e3eb43e9_20240207","","","","5","5","1281",""
"2460","0","html-button-response","201","968734","0.0-201.0","60ff1981688229d1e3eb43e9","60ff1981688229d1e3eb43e9_20240207","","","","9","5","261",""
"2338","0","html-button-response","202","971575","0.0-202.0","60ff1981688229d1e3eb43e9","60ff1981688229d1e3eb43e9_20240207","","","","6","4","644",""
"2138","0","html-button-response","203","974215","0.0-203.0","60ff1981688229d1e3eb43e9","60ff1981688229d1e3eb43e9_20240207","","","","6","7","1939",""
"2261","0","html-button-response","204","976977","0.0-204.0","60ff1981688229d1e3eb43e9","60ff1981688229d1e3eb43e9_20240207","","","","6","2","2080",""
"3550","0","html-button-response","205","981029","0.0-205.0","60ff1981688229d1e3eb43e9","60ff1981688229d1e3eb43e9_20240207","","","","9","5","6",""
"3040","0","html-button-response","206","984571","0.0-206.0","60ff1981688229d1e3eb43e9","60ff1981688229d1e3eb43e9_20240207","","","","7","5","258",""
"2730","0","html-button-response","207","987803","0.0-207.0","60ff1981688229d1e3eb43e9","60ff1981688229d1e3eb43e9_20240207","","","","8","5","394",""
"2933","0","html-button-response","208","991237","0.0-208.0","60ff1981688229d1e3eb43e9","60ff1981688229d1e3eb43e9_20240207","","","","6","7","1562",""
"2114","0","html-button-response","209","993853","0.0-209.0","60ff1981688229d1e3eb43e9","60ff1981688229d1e3eb43e9_20240207","","","","5","2","1373",""
"3767","0","html-button-response","210","998121","0.0-210.0","60ff1981688229d1e3eb43e9","60ff1981688229d1e3eb43e9_20240207","","","","7","7","743",""
"2470","0","html-button-response","211","1001093","0.0-211.0","60ff1981688229d1e3eb43e9","60ff1981688229d1e3eb43e9_20240207","","","","6","2","1715",""
"2144","0","html-button-response","212","1003739","0.0-212.0","60ff1981688229d1e3eb43e9","60ff1981688229d1e3eb43e9_20240207","","","","5","4","605",""
"2492","0","html-button-response","213","1006733","0.0-213.0","60ff1981688229d1e3eb43e9","60ff1981688229d1e3eb43e9_20240207","","","","5","4","580",""
"3759","0","html-button-response","214","1010993","0.0-214.0","60ff1981688229d1e3eb43e9","60ff1981688229d1e3eb43e9_20240207","","","","8","5","68",""
"2291","0","html-button-response","215","1013787","0.0-215.0","60ff1981688229d1e3eb43e9","60ff1981688229d1e3eb43e9_20240207","","","","6","5","1127",""
"1898","0","html-button-response","216","1016187","0.0-216.0","60ff1981688229d1e3eb43e9","60ff1981688229d1e3eb43e9_20240207","","","","5","5","943",""
"2193","0","html-button-response","217","1018881","0.0-217.0","60ff1981688229d1e3eb43e9","60ff1981688229d1e3eb43e9_20240207","","","","5","5","1488",""
"2415","0","html-button-response","218","1021797","0.0-218.0","60ff1981688229d1e3eb43e9","60ff1981688229d1e3eb43e9_20240207","","","","7","5","552",""
"2594","0","html-button-response","219","1024893","0.0-219.0","60ff1981688229d1e3eb43e9","60ff1981688229d1e3eb43e9_20240207","","","","5","2","1869",""
"2144","0","html-button-response","220","1027539","0.0-220.0","60ff1981688229d1e3eb43e9","60ff1981688229d1e3eb43e9_20240207","","","","5","3","1569",""
"3002","0","html-button-response","221","1031044","0.0-221.0","60ff1981688229d1e3eb43e9","60ff1981688229d1e3eb43e9_20240207","","","","5","1","1363",""
"2244","0","html-button-response","222","1033789","0.0-222.0","60ff1981688229d1e3eb43e9","60ff1981688229d1e3eb43e9_20240207","","","","5","5","1282",""
"2640","0","html-button-response","223","1036931","0.0-223.0","60ff1981688229d1e3eb43e9","60ff1981688229d1e3eb43e9_20240207","","","","8","5","157",""
"2398","0","html-button-response","224","1039831","0.0-224.0","60ff1981688229d1e3eb43e9","60ff1981688229d1e3eb43e9_20240207","","","","6","5","2026",""
"1567","0","html-button-response","225","1041901","0.0-225.0","60ff1981688229d1e3eb43e9","60ff1981688229d1e3eb43e9_20240207","","","Thank you. You have reached the end. 
                       <br>Click the button below to reveal your compensation.
                        <br><br>","","","","1836,712,954,1075,150,1951,1647,98,825,1253,1400,1864,1147,1270,571,2184,1173,1604,1768,1852,222,802,46,1628,762,859,1366,1493,1239,1892,780,746,1356,640,648,567,915,1468,990,2166,1106,1023,1959,2161,995,1389,1672,1947,584,716,1739,1321,1756,1090,1558,1561,835,948,2009,803,373,1464,800,695,1764,395,684,1815,781,328,249,2,569,766,775,2122,1102,2046,519,1292,2048,520,817,238,2053,2134,1599,218,1257,1316,199,1091,967,1327,675,761,1630,1613,1918,2036,1082,2047,1625,912,1952,2190,1492,1990,543,2152,220,275,618,1048,2094,831,1505,1799,889,1280,1582,706,86,933,942,2111,1862,1829,1559,1201,1955,299,1986,1883,665,689,282,1945,327,1766,1795,355,836,508,102,54,1533,1140,2192,1994,1337,1382,235,1747,738,1470,227,194,135,251,2002,1284,2087,848,1156,1138,2085,136,1732,1423,1443,1704,1017,1669,730,402,668,1504,1077,1226,1906,1810,1833,388,782,786,382,904,1612,1314,1675,1183,892,323,446,1281,261,644,1939,2080,6,258,394,1562,1373,743,1715,605,580,68,1127,943,1488,552,1869,1569,1363,1282,157,2026"
