"rt","response","trial_type","trial_index","time_elapsed","internal_node_id","part_ID","ID_DATE","screen_id","understand_correct","stimulus","arousal","valence","img_id","tested_trial_idx"
"18019","0","html-button-response","0","18030","0.0-0.0","61080c7faef2e03bd7709250","61080c7faef2e03bd7709250_20240207","","","","","","",""
"6732","[object Object]","survey-html-form","1","25278","0.0-1.0","61080c7faef2e03bd7709250","61080c7faef2e03bd7709250_20240207","prolific_id_page","","","","","",""
"56264","0","html-button-response","2","81553","0.0-2.0","61080c7faef2e03bd7709250","61080c7faef2e03bd7709250_20240207","","","","","","",""
"91314","0","html-button-response","3","173378","0.0-3.0-0.0","61080c7faef2e03bd7709250","61080c7faef2e03bd7709250_20240207","","true","","","","",""
"2055","0","html-button-response","4","175947","0.0-4.0","61080c7faef2e03bd7709250","61080c7faef2e03bd7709250_20240207","","","
<div>
Great! You will now go on to rate the faces.
<br><br>
</div>
","","","",""
"15640","0","html-button-response","5","192105","0.0-5.0","61080c7faef2e03bd7709250","61080c7faef2e03bd7709250_20240207","","","","6","3","198",""
"7169","0","html-button-response","6","199786","0.0-6.0","61080c7faef2e03bd7709250","61080c7faef2e03bd7709250_20240207","","","","4","2","303",""
"6781","0","html-button-response","7","207076","0.0-7.0","61080c7faef2e03bd7709250","61080c7faef2e03bd7709250_20240207","","","","5","1","1151",""
"7996","0","html-button-response","8","215584","0.0-8.0","61080c7faef2e03bd7709250","61080c7faef2e03bd7709250_20240207","","","","4","1","1209",""
"7069","0","html-button-response","9","223163","0.0-9.0","61080c7faef2e03bd7709250","61080c7faef2e03bd7709250_20240207","","","","6","3","216",""
"6783","0","html-button-response","10","230456","0.0-10.0","61080c7faef2e03bd7709250","61080c7faef2e03bd7709250_20240207","","","","6","5","902",""
"6311","0","html-button-response","11","237276","0.0-11.0","61080c7faef2e03bd7709250","61080c7faef2e03bd7709250_20240207","","","","8","7","1736",""
"10048","0","html-button-response","12","247836","0.0-12.0","61080c7faef2e03bd7709250","61080c7faef2e03bd7709250_20240207","","","","4","3","606",""
"11323","0","html-button-response","13","259664","0.0-13.0","61080c7faef2e03bd7709250","61080c7faef2e03bd7709250_20240207","","","","6","3","62",""
"6331","0","html-button-response","14","266504","0.0-14.0","61080c7faef2e03bd7709250","61080c7faef2e03bd7709250_20240207","","","","7","1","1806",""
"9051","0","html-button-response","15","276065","0.0-15.0","61080c7faef2e03bd7709250","61080c7faef2e03bd7709250_20240207","","","","5","5","487",""
"4848","0","html-button-response","16","281423","0.0-16.0","61080c7faef2e03bd7709250","61080c7faef2e03bd7709250_20240207","","","","6","7","750",""
"8171","0","html-button-response","17","290104","0.0-17.0","61080c7faef2e03bd7709250","61080c7faef2e03bd7709250_20240207","","","","7","7","187",""
"4367","0","html-button-response","18","294983","0.0-18.0","61080c7faef2e03bd7709250","61080c7faef2e03bd7709250_20240207","","","","5","5","1827",""
"4619","0","html-button-response","19","300111","0.0-19.0","61080c7faef2e03bd7709250","61080c7faef2e03bd7709250_20240207","","","","7","5","2125",""
"5577","0","html-button-response","20","306199","0.0-20.0","61080c7faef2e03bd7709250","61080c7faef2e03bd7709250_20240207","","","","7","7","1020",""
"5174","0","html-button-response","21","311880","0.0-21.0","61080c7faef2e03bd7709250","61080c7faef2e03bd7709250_20240207","","","","5","5","1472",""
"4615","0","html-button-response","22","317004","0.0-22.0","61080c7faef2e03bd7709250","61080c7faef2e03bd7709250_20240207","","","","8","5","54",""
"4363","0","html-button-response","23","321875","0.0-23.0","61080c7faef2e03bd7709250","61080c7faef2e03bd7709250_20240207","","","","5","5","836",""
"12746","0","html-button-response","24","335129","0.0-24.0","61080c7faef2e03bd7709250","61080c7faef2e03bd7709250_20240207","","","","6","3","530",""
"4824","0","html-button-response","25","340461","0.0-25.0","61080c7faef2e03bd7709250","61080c7faef2e03bd7709250_20240207","","","","5","5","658",""
"3327","0","html-button-response","26","344296","0.0-26.0","61080c7faef2e03bd7709250","61080c7faef2e03bd7709250_20240207","","","","5","5","630",""
"3716","0","html-button-response","27","348526","0.0-27.0","61080c7faef2e03bd7709250","61080c7faef2e03bd7709250_20240207","","","","5","5","1798",""
"7476","0","html-button-response","28","356511","0.0-28.0","61080c7faef2e03bd7709250","61080c7faef2e03bd7709250_20240207","","","","4","3","1091",""
"5723","0","html-button-response","29","362745","0.0-29.0","61080c7faef2e03bd7709250","61080c7faef2e03bd7709250_20240207","","","","4","1","1716",""
"6674","0","html-button-response","30","369930","0.0-30.0","61080c7faef2e03bd7709250","61080c7faef2e03bd7709250_20240207","","","","7","7","83",""
"5024","0","html-button-response","31","375461","0.0-31.0","61080c7faef2e03bd7709250","61080c7faef2e03bd7709250_20240207","","","","5","4","933",""
"3930","0","html-button-response","32","379898","0.0-32.0","61080c7faef2e03bd7709250","61080c7faef2e03bd7709250_20240207","","","","5","5","813",""
"4027","0","html-button-response","33","384434","0.0-33.0","61080c7faef2e03bd7709250","61080c7faef2e03bd7709250_20240207","","","","5","5","151",""
"3795","0","html-button-response","34","388739","0.0-34.0","61080c7faef2e03bd7709250","61080c7faef2e03bd7709250_20240207","","","","5","5","939",""
"6994","0","html-button-response","35","396245","0.0-35.0","61080c7faef2e03bd7709250","61080c7faef2e03bd7709250_20240207","","","","6","3","1066",""
"5786","0","html-button-response","36","402538","0.0-36.0","61080c7faef2e03bd7709250","61080c7faef2e03bd7709250_20240207","","","","6","4","935",""
"8510","0","html-button-response","37","411555","0.0-37.0","61080c7faef2e03bd7709250","61080c7faef2e03bd7709250_20240207","","","","5","7","2135",""
"7566","0","html-button-response","38","419629","0.0-38.0","61080c7faef2e03bd7709250","61080c7faef2e03bd7709250_20240207","","","","7","6","122",""
"9192","0","html-button-response","39","429330","0.0-39.0","61080c7faef2e03bd7709250","61080c7faef2e03bd7709250_20240207","","","","8","7","859",""
"13220","0","html-button-response","40","443064","0.0-40.0","61080c7faef2e03bd7709250","61080c7faef2e03bd7709250_20240207","","","","5","5","776",""
"27462","0","html-button-response","41","471035","0.0-41.0","61080c7faef2e03bd7709250","61080c7faef2e03bd7709250_20240207","","","","7","6","540",""
"9249","0","html-button-response","42","480793","0.0-42.0","61080c7faef2e03bd7709250","61080c7faef2e03bd7709250_20240207","","","","7","8","1237",""
"13388","0","html-button-response","43","494694","0.0-43.0","61080c7faef2e03bd7709250","61080c7faef2e03bd7709250_20240207","","","","4","5","147",""
"6545","0","html-button-response","44","501748","0.0-44.0","61080c7faef2e03bd7709250","61080c7faef2e03bd7709250_20240207","","","","4","3","1973",""
"4249","0","html-button-response","45","506505","0.0-45.0","61080c7faef2e03bd7709250","61080c7faef2e03bd7709250_20240207","","","","7","7","172",""
"6293","0","html-button-response","46","513306","0.0-46.0","61080c7faef2e03bd7709250","61080c7faef2e03bd7709250_20240207","","","","5","2","1742",""
"4546","0","html-button-response","47","518365","0.0-47.0","61080c7faef2e03bd7709250","61080c7faef2e03bd7709250_20240207","","","","5","5","2140",""
"7947","0","html-button-response","48","526824","0.0-48.0","61080c7faef2e03bd7709250","61080c7faef2e03bd7709250_20240207","","","","5","3","2131",""
"11931","0","html-button-response","49","539268","0.0-49.0","61080c7faef2e03bd7709250","61080c7faef2e03bd7709250_20240207","","","","5","4","1883",""
"5969","0","html-button-response","50","545749","0.0-50.0","61080c7faef2e03bd7709250","61080c7faef2e03bd7709250_20240207","","","","8","8","1592",""
"3473","0","html-button-response","51","549729","0.0-51.0","61080c7faef2e03bd7709250","61080c7faef2e03bd7709250_20240207","","","","5","5","1136",""
"11618","0","html-button-response","52","561854","0.0-52.0","61080c7faef2e03bd7709250","61080c7faef2e03bd7709250_20240207","","","","5","6","927",""
"3239","0","html-button-response","53","565605","0.0-53.0","61080c7faef2e03bd7709250","61080c7faef2e03bd7709250_20240207","","","","5","5","2186",""
"3220","0","html-button-response","54","569334","0.0-54.0","61080c7faef2e03bd7709250","61080c7faef2e03bd7709250_20240207","","","","5","5","1613",""
"4768","0","html-button-response","55","574610","0.0-55.0","61080c7faef2e03bd7709250","61080c7faef2e03bd7709250_20240207","","","","5","4","684",""
"4363","0","html-button-response","56","579482","0.0-56.0","61080c7faef2e03bd7709250","61080c7faef2e03bd7709250_20240207","","","","5","7","704",""
"6216","0","html-button-response","57","586206","0.0-57.0","61080c7faef2e03bd7709250","61080c7faef2e03bd7709250_20240207","","","","5","5","1990",""
"4110","0","html-button-response","58","590824","0.0-58.0","61080c7faef2e03bd7709250","61080c7faef2e03bd7709250_20240207","","","","8","8","1749",""
"3753","0","html-button-response","59","595084","0.0-59.0","61080c7faef2e03bd7709250","61080c7faef2e03bd7709250_20240207","","","","5","5","2011",""
"4001","0","html-button-response","60","599595","0.0-60.0","61080c7faef2e03bd7709250","61080c7faef2e03bd7709250_20240207","","","","5","2","702",""
"6648","0","html-button-response","61","606754","0.0-61.0","61080c7faef2e03bd7709250","61080c7faef2e03bd7709250_20240207","","","","8","8","2084",""
"4935","0","html-button-response","62","612201","0.0-62.0","61080c7faef2e03bd7709250","61080c7faef2e03bd7709250_20240207","","","","8","6","197",""
"4217","0","html-button-response","63","616926","0.0-63.0","61080c7faef2e03bd7709250","61080c7faef2e03bd7709250_20240207","","","","4","4","429",""
"4343","0","html-button-response","64","621782","0.0-64.0","61080c7faef2e03bd7709250","61080c7faef2e03bd7709250_20240207","","","","8","7","903",""
"3111","0","html-button-response","65","625402","0.0-65.0","61080c7faef2e03bd7709250","61080c7faef2e03bd7709250_20240207","","","","5","5","2175",""
"4610","0","html-button-response","66","630521","0.0-66.0","61080c7faef2e03bd7709250","61080c7faef2e03bd7709250_20240207","","","","5","3","52",""
"6549","0","html-button-response","67","637583","0.0-67.0","61080c7faef2e03bd7709250","61080c7faef2e03bd7709250_20240207","","","","4","4","647",""
"4279","0","html-button-response","68","642376","0.0-68.0","61080c7faef2e03bd7709250","61080c7faef2e03bd7709250_20240207","","","","4","4","649",""
"2789","0","html-button-response","69","645675","0.0-69.0","61080c7faef2e03bd7709250","61080c7faef2e03bd7709250_20240207","","","","5","5","1513",""
"4136","0","html-button-response","70","650319","0.0-70.0","61080c7faef2e03bd7709250","61080c7faef2e03bd7709250_20240207","","","","5","3","1064",""
"3643","0","html-button-response","71","654471","0.0-71.0","61080c7faef2e03bd7709250","61080c7faef2e03bd7709250_20240207","","","","8","8","1879",""
"3204","0","html-button-response","72","658182","0.0-72.0","61080c7faef2e03bd7709250","61080c7faef2e03bd7709250_20240207","","","","5","5","1680",""
"3427","0","html-button-response","73","662119","0.0-73.0","61080c7faef2e03bd7709250","61080c7faef2e03bd7709250_20240207","","","","5","5","1842",""
"4483","0","html-button-response","74","667114","0.0-74.0","61080c7faef2e03bd7709250","61080c7faef2e03bd7709250_20240207","","","","8","7","1574",""
"3477","0","html-button-response","75","671099","0.0-75.0","61080c7faef2e03bd7709250","61080c7faef2e03bd7709250_20240207","","","","5","5","1307",""
"8378","0","html-button-response","76","679986","0.0-76.0","61080c7faef2e03bd7709250","61080c7faef2e03bd7709250_20240207","","","","7","5","625",""
"3609","0","html-button-response","77","684105","0.0-77.0","61080c7faef2e03bd7709250","61080c7faef2e03bd7709250_20240207","","","","4","5","311",""
"4517","0","html-button-response","78","689135","0.0-78.0","61080c7faef2e03bd7709250","61080c7faef2e03bd7709250_20240207","","","","5","4","1129",""
"3752","0","html-button-response","79","693402","0.0-79.0","61080c7faef2e03bd7709250","61080c7faef2e03bd7709250_20240207","","","","5","2","1559",""
"3528","0","html-button-response","80","697443","0.0-80.0","61080c7faef2e03bd7709250","61080c7faef2e03bd7709250_20240207","","","","5","5","1158",""
"3243","0","html-button-response","81","701194","0.0-81.0","61080c7faef2e03bd7709250","61080c7faef2e03bd7709250_20240207","","","","5","5","1853",""
"3390","0","html-button-response","82","705091","0.0-82.0","61080c7faef2e03bd7709250","61080c7faef2e03bd7709250_20240207","","","","5","5","1315",""
"4300","0","html-button-response","83","709903","0.0-83.0","61080c7faef2e03bd7709250","61080c7faef2e03bd7709250_20240207","","","","8","8","1554",""
"3849","0","html-button-response","84","714261","0.0-84.0","61080c7faef2e03bd7709250","61080c7faef2e03bd7709250_20240207","","","","5","5","840",""
"3320","0","html-button-response","85","718087","0.0-85.0","61080c7faef2e03bd7709250","61080c7faef2e03bd7709250_20240207","","","","5","5","488",""
"5481","0","html-button-response","86","724080","0.0-86.0","61080c7faef2e03bd7709250","61080c7faef2e03bd7709250_20240207","","","","9","6","80",""
"4391","0","html-button-response","87","728978","0.0-87.0","61080c7faef2e03bd7709250","61080c7faef2e03bd7709250_20240207","","","","9","6","535",""
"4742","0","html-button-response","88","734230","0.0-88.0","61080c7faef2e03bd7709250","61080c7faef2e03bd7709250_20240207","","","","5","4","65",""
"3445","0","html-button-response","89","738185","0.0-89.0","61080c7faef2e03bd7709250","61080c7faef2e03bd7709250_20240207","","","","8","8","1057",""
"4195","0","html-button-response","90","742893","0.0-90.0","61080c7faef2e03bd7709250","61080c7faef2e03bd7709250_20240207","","","","5","5","1462",""
"3460","0","html-button-response","91","746864","0.0-91.0","61080c7faef2e03bd7709250","61080c7faef2e03bd7709250_20240207","","","","5","4","1739",""
"3940","0","html-button-response","92","751312","0.0-92.0","61080c7faef2e03bd7709250","61080c7faef2e03bd7709250_20240207","","","","8","6","131",""
"3062","0","html-button-response","93","754886","0.0-93.0","61080c7faef2e03bd7709250","61080c7faef2e03bd7709250_20240207","","","","5","2","1534",""
"2911","0","html-button-response","94","758309","0.0-94.0","61080c7faef2e03bd7709250","61080c7faef2e03bd7709250_20240207","","","","5","5","1999",""
"2905","0","html-button-response","95","761726","0.0-95.0","61080c7faef2e03bd7709250","61080c7faef2e03bd7709250_20240207","","","","5","5","986",""
"3066","0","html-button-response","96","765301","0.0-96.0","61080c7faef2e03bd7709250","61080c7faef2e03bd7709250_20240207","","","","5","5","1171",""
"3905","0","html-button-response","97","769716","0.0-97.0","61080c7faef2e03bd7709250","61080c7faef2e03bd7709250_20240207","","","","5","4","1453",""
"3520","0","html-button-response","98","773748","0.0-98.0","61080c7faef2e03bd7709250","61080c7faef2e03bd7709250_20240207","","","","8","8","1030",""
"5660","0","html-button-response","99","779921","0.0-99.0","61080c7faef2e03bd7709250","61080c7faef2e03bd7709250_20240207","","","","7","8","1698",""
"5191","0","html-button-response","100","785624","0.0-100.0","61080c7faef2e03bd7709250","61080c7faef2e03bd7709250_20240207","","","","5","5","2179",""
"3753","0","html-button-response","101","789888","0.0-101.0","61080c7faef2e03bd7709250","61080c7faef2e03bd7709250_20240207","","","","5","5","1622",""
"3550","0","html-button-response","102","793947","0.0-102.0","61080c7faef2e03bd7709250","61080c7faef2e03bd7709250_20240207","","","","5","5","623",""
"2961","0","html-button-response","103","797421","0.0-103.0","61080c7faef2e03bd7709250","61080c7faef2e03bd7709250_20240207","","","","5","5","1776",""
"4263","0","html-button-response","104","802192","0.0-104.0","61080c7faef2e03bd7709250","61080c7faef2e03bd7709250_20240207","","","","5","5","1988",""
"4339","0","html-button-response","105","807044","0.0-105.0","61080c7faef2e03bd7709250","61080c7faef2e03bd7709250_20240207","","","","8","6","72",""
"10458","0","html-button-response","106","818012","0.0-106.0","61080c7faef2e03bd7709250","61080c7faef2e03bd7709250_20240207","","","","8","8","1566",""
"3800","0","html-button-response","107","822319","0.0-107.0","61080c7faef2e03bd7709250","61080c7faef2e03bd7709250_20240207","","","","5","2","2066",""
"3222","0","html-button-response","108","826050","0.0-108.0","61080c7faef2e03bd7709250","61080c7faef2e03bd7709250_20240207","","","","5","1","701",""
"3316","0","html-button-response","109","829876","0.0-109.0","61080c7faef2e03bd7709250","61080c7faef2e03bd7709250_20240207","","","","5","5","1331",""
"3914","0","html-button-response","110","834301","0.0-110.0","61080c7faef2e03bd7709250","61080c7faef2e03bd7709250_20240207","","","","5","5","788",""
"3629","0","html-button-response","111","838443","0.0-111.0","61080c7faef2e03bd7709250","61080c7faef2e03bd7709250_20240207","","","","5","5","1112",""
"2901","0","html-button-response","112","841854","0.0-112.0","61080c7faef2e03bd7709250","61080c7faef2e03bd7709250_20240207","","","","5","5","1309",""
"3560","0","html-button-response","113","845921","0.0-113.0","61080c7faef2e03bd7709250","61080c7faef2e03bd7709250_20240207","","","","8","7","383",""
"4436","0","html-button-response","114","850868","0.0-114.0","61080c7faef2e03bd7709250","61080c7faef2e03bd7709250_20240207","","","","6","7","1556",""
"5171","0","html-button-response","115","856552","0.0-115.0","61080c7faef2e03bd7709250","61080c7faef2e03bd7709250_20240207","","","","4","4","152",""
"3862","0","html-button-response","116","860928","0.0-116.0","61080c7faef2e03bd7709250","61080c7faef2e03bd7709250_20240207","","","","5","4","1234",""
"4149","0","html-button-response","117","865586","0.0-117.0","61080c7faef2e03bd7709250","61080c7faef2e03bd7709250_20240207","","","","8","6","370",""
"3984","0","html-button-response","118","870080","0.0-118.0","61080c7faef2e03bd7709250","61080c7faef2e03bd7709250_20240207","","","","5","4","1182",""
"6899","0","html-button-response","119","877492","0.0-119.0","61080c7faef2e03bd7709250","61080c7faef2e03bd7709250_20240207","","","","5","5","329",""
"3507","0","html-button-response","120","881508","0.0-120.0","61080c7faef2e03bd7709250","61080c7faef2e03bd7709250_20240207","","","","5","4","2015",""
"3092","0","html-button-response","121","885109","0.0-121.0","61080c7faef2e03bd7709250","61080c7faef2e03bd7709250_20240207","","","","8","8","1214",""
"4705","0","html-button-response","122","890324","0.0-122.0","61080c7faef2e03bd7709250","61080c7faef2e03bd7709250_20240207","","","","9","8","2043",""
"3547","0","html-button-response","123","894383","0.0-123.0","61080c7faef2e03bd7709250","61080c7faef2e03bd7709250_20240207","","","","9","8","1354",""
"5555","0","html-button-response","124","900450","0.0-124.0","61080c7faef2e03bd7709250","61080c7faef2e03bd7709250_20240207","","","","5","4","949",""
"5355","0","html-button-response","125","906311","0.0-125.0","61080c7faef2e03bd7709250","61080c7faef2e03bd7709250_20240207","","","","8","7","444",""
"3482","0","html-button-response","126","910299","0.0-126.0","61080c7faef2e03bd7709250","61080c7faef2e03bd7709250_20240207","","","","5","5","1967",""
"2917","0","html-button-response","127","913722","0.0-127.0","61080c7faef2e03bd7709250","61080c7faef2e03bd7709250_20240207","","","","5","4","948",""
"4009","0","html-button-response","128","918242","0.0-128.0","61080c7faef2e03bd7709250","61080c7faef2e03bd7709250_20240207","","","","8","7","735",""
"5405","0","html-button-response","129","924154","0.0-129.0","61080c7faef2e03bd7709250","61080c7faef2e03bd7709250_20240207","","","","5","3","711",""
"3564","0","html-button-response","130","928227","0.0-130.0","61080c7faef2e03bd7709250","61080c7faef2e03bd7709250_20240207","","","","5","4","1376",""
"3555","0","html-button-response","131","932292","0.0-131.0","61080c7faef2e03bd7709250","61080c7faef2e03bd7709250_20240207","","","","5","5","777",""
"3497","0","html-button-response","132","936302","0.0-132.0","61080c7faef2e03bd7709250","61080c7faef2e03bd7709250_20240207","","","","8","8","1561",""
"3457","0","html-button-response","133","940268","0.0-133.0","61080c7faef2e03bd7709250","61080c7faef2e03bd7709250_20240207","","","","5","5","1161",""
"5014","0","html-button-response","134","945789","0.0-134.0","61080c7faef2e03bd7709250","61080c7faef2e03bd7709250_20240207","","","","7","6","97",""
"4776","0","html-button-response","135","951075","0.0-135.0","61080c7faef2e03bd7709250","61080c7faef2e03bd7709250_20240207","","","","8","8","2061",""
"6763","0","html-button-response","136","958348","0.0-136.0","61080c7faef2e03bd7709250","61080c7faef2e03bd7709250_20240207","","","","5","3","1544",""
"4539","0","html-button-response","137","963398","0.0-137.0","61080c7faef2e03bd7709250","61080c7faef2e03bd7709250_20240207","","","","5","5","953",""
"9134","0","html-button-response","138","973044","0.0-138.0","61080c7faef2e03bd7709250","61080c7faef2e03bd7709250_20240207","","","","5","5","1449",""
"4079","0","html-button-response","139","977629","0.0-139.0","61080c7faef2e03bd7709250","61080c7faef2e03bd7709250_20240207","","","","8","8","2070",""
"5038","0","html-button-response","140","983172","0.0-140.0","61080c7faef2e03bd7709250","61080c7faef2e03bd7709250_20240207","","","","4","4","91",""
"4883","0","html-button-response","141","988563","0.0-141.0","61080c7faef2e03bd7709250","61080c7faef2e03bd7709250_20240207","","","","5","4","1727",""
"7543","0","html-button-response","142","996617","0.0-142.0","61080c7faef2e03bd7709250","61080c7faef2e03bd7709250_20240207","","","","7","5","192",""
"4636","0","html-button-response","143","1001761","0.0-143.0","61080c7faef2e03bd7709250","61080c7faef2e03bd7709250_20240207","","","","5","5","1656",""
"3663","0","html-button-response","144","1005934","0.0-144.0","61080c7faef2e03bd7709250","61080c7faef2e03bd7709250_20240207","","","","5","5","1282",""
"3803","0","html-button-response","145","1010249","0.0-145.0","61080c7faef2e03bd7709250","61080c7faef2e03bd7709250_20240207","","","","5","4","377",""
"3002","0","html-button-response","146","1013755","0.0-146.0","61080c7faef2e03bd7709250","61080c7faef2e03bd7709250_20240207","","","","5","5","2172",""
"2994","0","html-button-response","147","1017261","0.0-147.0","61080c7faef2e03bd7709250","61080c7faef2e03bd7709250_20240207","","","","5","4","894",""
"3240","0","html-button-response","148","1021008","0.0-148.0","61080c7faef2e03bd7709250","61080c7faef2e03bd7709250_20240207","","","","5","4","1021",""
"3254","0","html-button-response","149","1024769","0.0-149.0","61080c7faef2e03bd7709250","61080c7faef2e03bd7709250_20240207","","","","5","5","1347",""
"4841","0","html-button-response","150","1030118","0.0-150.0","61080c7faef2e03bd7709250","61080c7faef2e03bd7709250_20240207","","","","4","4","598",""
"7803","0","html-button-response","151","1038434","0.0-151.0","61080c7faef2e03bd7709250","61080c7faef2e03bd7709250_20240207","","","","7","5","314",""
"5459","0","html-button-response","152","1044402","0.0-152.0","61080c7faef2e03bd7709250","61080c7faef2e03bd7709250_20240207","","","","7","7","1399",""
"3641","0","html-button-response","153","1048556","0.0-153.0","61080c7faef2e03bd7709250","61080c7faef2e03bd7709250_20240207","","","","7","5","106",""
"5256","0","html-button-response","154","1054319","0.0-154.0","61080c7faef2e03bd7709250","61080c7faef2e03bd7709250_20240207","","","","8","7","1953",""
"3702","0","html-button-response","155","1058530","0.0-155.0","61080c7faef2e03bd7709250","61080c7faef2e03bd7709250_20240207","","","","8","7","1774",""
"3672","0","html-button-response","156","1062713","0.0-156.0","61080c7faef2e03bd7709250","61080c7faef2e03bd7709250_20240207","","","","7","5","926",""
"3295","0","html-button-response","157","1066516","0.0-157.0","61080c7faef2e03bd7709250","61080c7faef2e03bd7709250_20240207","","","","5","5","1470",""
"4963","0","html-button-response","158","1071987","0.0-158.0","61080c7faef2e03bd7709250","61080c7faef2e03bd7709250_20240207","","","","6","4","1946",""
"5808","0","html-button-response","159","1078308","0.0-159.0","61080c7faef2e03bd7709250","61080c7faef2e03bd7709250_20240207","","","","4","3","348",""
"4428","0","html-button-response","160","1083244","0.0-160.0","61080c7faef2e03bd7709250","61080c7faef2e03bd7709250_20240207","","","","5","5","1815",""
"3478","0","html-button-response","161","1087231","0.0-161.0","61080c7faef2e03bd7709250","61080c7faef2e03bd7709250_20240207","","","","5","5","838",""
"3441","0","html-button-response","162","1091181","0.0-162.0","61080c7faef2e03bd7709250","61080c7faef2e03bd7709250_20240207","","","","5","5","112",""
"5045","0","html-button-response","163","1096733","0.0-163.0","61080c7faef2e03bd7709250","61080c7faef2e03bd7709250_20240207","","","","7","7","1204",""
"4639","0","html-button-response","164","1101884","0.0-164.0","61080c7faef2e03bd7709250","61080c7faef2e03bd7709250_20240207","","","","4","5","333",""
"3652","0","html-button-response","165","1106049","0.0-165.0","61080c7faef2e03bd7709250","61080c7faef2e03bd7709250_20240207","","","","5","5","991",""
"3354","0","html-button-response","166","1109912","0.0-166.0","61080c7faef2e03bd7709250","61080c7faef2e03bd7709250_20240207","","","","5","4","220",""
"6273","0","html-button-response","167","1116694","0.0-167.0","61080c7faef2e03bd7709250","61080c7faef2e03bd7709250_20240207","","","","4","4","585",""
"6831","0","html-button-response","168","1124035","0.0-168.0","61080c7faef2e03bd7709250","61080c7faef2e03bd7709250_20240207","","","","5","4","1232",""
"4754","0","html-button-response","169","1129299","0.0-169.0","61080c7faef2e03bd7709250","61080c7faef2e03bd7709250_20240207","","","","5","4","2091",""
"3583","0","html-button-response","170","1133391","0.0-170.0","61080c7faef2e03bd7709250","61080c7faef2e03bd7709250_20240207","","","","5","5","620",""
"8127","0","html-button-response","171","1142025","0.0-171.0","61080c7faef2e03bd7709250","61080c7faef2e03bd7709250_20240207","","","","5","3","896",""
"4650","0","html-button-response","172","1147185","0.0-172.0","61080c7faef2e03bd7709250","61080c7faef2e03bd7709250_20240207","","","","5","6","1192",""
"3850","0","html-button-response","173","1151545","0.0-173.0","61080c7faef2e03bd7709250","61080c7faef2e03bd7709250_20240207","","","","7","5","743",""
"5864","0","html-button-response","174","1157920","0.0-174.0","61080c7faef2e03bd7709250","61080c7faef2e03bd7709250_20240207","","","","8","5","560",""
"8074","0","html-button-response","175","1166502","0.0-175.0","61080c7faef2e03bd7709250","61080c7faef2e03bd7709250_20240207","","","","5","5","1993",""
"4552","0","html-button-response","176","1171566","0.0-176.0","61080c7faef2e03bd7709250","61080c7faef2e03bd7709250_20240207","","","","7","7","1217",""
"4583","0","html-button-response","177","1176659","0.0-177.0","61080c7faef2e03bd7709250","61080c7faef2e03bd7709250_20240207","","","","5","5","1180",""
"5504","0","html-button-response","178","1182673","0.0-178.0","61080c7faef2e03bd7709250","61080c7faef2e03bd7709250_20240207","","","","8","5","236",""
"4230","0","html-button-response","179","1187412","0.0-179.0","61080c7faef2e03bd7709250","61080c7faef2e03bd7709250_20240207","","","","5","3","1089",""
"3752","0","html-button-response","180","1191677","0.0-180.0","61080c7faef2e03bd7709250","61080c7faef2e03bd7709250_20240207","","","","8","6","694",""
"4029","0","html-button-response","181","1196221","0.0-181.0","61080c7faef2e03bd7709250","61080c7faef2e03bd7709250_20240207","","","","8","8","1886",""
"3836","0","html-button-response","182","1200565","0.0-182.0","61080c7faef2e03bd7709250","61080c7faef2e03bd7709250_20240207","","","","8","8","1384",""
"3840","0","html-button-response","183","1204915","0.0-183.0","61080c7faef2e03bd7709250","61080c7faef2e03bd7709250_20240207","","","","5","4","1101",""
"3565","0","html-button-response","184","1208991","0.0-184.0","61080c7faef2e03bd7709250","61080c7faef2e03bd7709250_20240207","","","","5","5","1294",""
"3049","0","html-button-response","185","1212550","0.0-185.0","61080c7faef2e03bd7709250","61080c7faef2e03bd7709250_20240207","","","","5","3","1753",""
"4436","0","html-button-response","186","1217495","0.0-186.0","61080c7faef2e03bd7709250","61080c7faef2e03bd7709250_20240207","","","","5","3","1142",""
"3504","0","html-button-response","187","1221505","0.0-187.0","61080c7faef2e03bd7709250","61080c7faef2e03bd7709250_20240207","","","","5","5","1795",""
"3630","0","html-button-response","188","1225648","0.0-188.0","61080c7faef2e03bd7709250","61080c7faef2e03bd7709250_20240207","","","","5","3","1391",""
"4845","0","html-button-response","189","1231004","0.0-189.0","61080c7faef2e03bd7709250","61080c7faef2e03bd7709250_20240207","","","","5","5","1837",""
"3559","0","html-button-response","190","1235070","0.0-190.0","61080c7faef2e03bd7709250","61080c7faef2e03bd7709250_20240207","","","","8","5","566",""
"3594","0","html-button-response","191","1239176","0.0-191.0","61080c7faef2e03bd7709250","61080c7faef2e03bd7709250_20240207","","","","5","3","895",""
"5364","0","html-button-response","192","1245049","0.0-192.0","61080c7faef2e03bd7709250","61080c7faef2e03bd7709250_20240207","","","","4","5","661",""
"3677","0","html-button-response","193","1249237","0.0-193.0","61080c7faef2e03bd7709250","61080c7faef2e03bd7709250_20240207","","","","7","5","22",""
"4116","0","html-button-response","194","1253859","0.0-194.0","61080c7faef2e03bd7709250","61080c7faef2e03bd7709250_20240207","","","","7","5","574",""
"4630","0","html-button-response","195","1258997","0.0-195.0","61080c7faef2e03bd7709250","61080c7faef2e03bd7709250_20240207","","","","4","3","1585",""
"5501","0","html-button-response","196","1265009","0.0-196.0","61080c7faef2e03bd7709250","61080c7faef2e03bd7709250_20240207","","","","7","8","1770",""
"5039","0","html-button-response","197","1270556","0.0-197.0","61080c7faef2e03bd7709250","61080c7faef2e03bd7709250_20240207","","","","7","6","399",""
"5521","0","html-button-response","198","1276583","0.0-198.0","61080c7faef2e03bd7709250","61080c7faef2e03bd7709250_20240207","","","","8","7","1942",""
"5438","0","html-button-response","199","1282526","0.0-199.0","61080c7faef2e03bd7709250","61080c7faef2e03bd7709250_20240207","","","","5","5","652",""
"3669","0","html-button-response","200","1286700","0.0-200.0","61080c7faef2e03bd7709250","61080c7faef2e03bd7709250_20240207","","","","5","5","2165",""
"5447","0","html-button-response","201","1292653","0.0-201.0","61080c7faef2e03bd7709250","61080c7faef2e03bd7709250_20240207","","","","9","9","1720",""
"6221","0","html-button-response","202","1299380","0.0-202.0","61080c7faef2e03bd7709250","61080c7faef2e03bd7709250_20240207","","","","6","4","102",""
"3766","0","html-button-response","203","1303652","0.0-203.0","61080c7faef2e03bd7709250","61080c7faef2e03bd7709250_20240207","","","","5","4","947",""
"3687","0","html-button-response","204","1307847","0.0-204.0","61080c7faef2e03bd7709250","61080c7faef2e03bd7709250_20240207","","","","7","7","872",""
"4467","0","html-button-response","205","1312819","0.0-205.0","61080c7faef2e03bd7709250","61080c7faef2e03bd7709250_20240207","","","","6","6","101",""
"3932","0","html-button-response","206","1317255","0.0-206.0","61080c7faef2e03bd7709250","61080c7faef2e03bd7709250_20240207","","","","4","3","1313",""
"4588","0","html-button-response","207","1322349","0.0-207.0","61080c7faef2e03bd7709250","61080c7faef2e03bd7709250_20240207","","","","7","8","846",""
"8031","0","html-button-response","208","1330890","0.0-208.0","61080c7faef2e03bd7709250","61080c7faef2e03bd7709250_20240207","","","","5","5","1634",""
"5996","0","html-button-response","209","1337396","0.0-209.0","61080c7faef2e03bd7709250","61080c7faef2e03bd7709250_20240207","","","","9","9","1523",""
"5018","0","html-button-response","210","1342923","0.0-210.0","61080c7faef2e03bd7709250","61080c7faef2e03bd7709250_20240207","","","","5","5","2006",""
"3717","0","html-button-response","211","1347147","0.0-211.0","61080c7faef2e03bd7709250","61080c7faef2e03bd7709250_20240207","","","","7","5","760",""
"4893","0","html-button-response","212","1352545","0.0-212.0","61080c7faef2e03bd7709250","61080c7faef2e03bd7709250_20240207","","","","7","4","42",""
"4088","0","html-button-response","213","1357137","0.0-213.0","61080c7faef2e03bd7709250","61080c7faef2e03bd7709250_20240207","","","","6","4","203",""
"7181","0","html-button-response","214","1364825","0.0-214.0","61080c7faef2e03bd7709250","61080c7faef2e03bd7709250_20240207","","","","4","4","672",""
"5772","0","html-button-response","215","1371106","0.0-215.0","61080c7faef2e03bd7709250","61080c7faef2e03bd7709250_20240207","","","","7","5","17",""
"4416","0","html-button-response","216","1376032","0.0-216.0","61080c7faef2e03bd7709250","61080c7faef2e03bd7709250_20240207","","","","7","6","423",""
"6114","0","html-button-response","217","1382660","0.0-217.0","61080c7faef2e03bd7709250","61080c7faef2e03bd7709250_20240207","","","","9","9","1696",""
"4975","0","html-button-response","218","1388140","0.0-218.0","61080c7faef2e03bd7709250","61080c7faef2e03bd7709250_20240207","","","","3","5","295",""
"4422","0","html-button-response","219","1393068","0.0-219.0","61080c7faef2e03bd7709250","61080c7faef2e03bd7709250_20240207","","","","5","5","1685",""
"3187","0","html-button-response","220","1396763","0.0-220.0","61080c7faef2e03bd7709250","61080c7faef2e03bd7709250_20240207","","","","5","5","1657",""
"5584","0","html-button-response","221","1402853","0.0-221.0","61080c7faef2e03bd7709250","61080c7faef2e03bd7709250_20240207","","","","4","3","907",""
"3593","0","html-button-response","222","1406953","0.0-222.0","61080c7faef2e03bd7709250","61080c7faef2e03bd7709250_20240207","","","","9","9","1904",""
"4285","0","html-button-response","223","1411744","0.0-223.0","61080c7faef2e03bd7709250","61080c7faef2e03bd7709250_20240207","","","","4","3","689",""
"3662","0","html-button-response","224","1415915","0.0-224.0","61080c7faef2e03bd7709250","61080c7faef2e03bd7709250_20240207","","","","5","5","1983",""
"3097","0","html-button-response","225","1419518","0.0-225.0","61080c7faef2e03bd7709250","61080c7faef2e03bd7709250_20240207","","","Thank you. You have reached the end. 
                       <br>Click the button below to reveal your compensation.
                        <br><br>","","","","198,303,1151,1209,216,902,1736,606,62,1806,487,750,187,1827,2125,1020,1472,54,836,530,658,630,1798,1091,1716,83,933,813,151,939,1066,935,2135,122,859,776,540,1237,147,1973,172,1742,2140,2131,1883,1592,1136,927,2186,1613,684,704,1990,1749,2011,702,2084,197,429,903,2175,52,647,649,1513,1064,1879,1680,1842,1574,1307,625,311,1129,1559,1158,1853,1315,1554,840,488,80,535,65,1057,1462,1739,131,1534,1999,986,1171,1453,1030,1698,2179,1622,623,1776,1988,72,1566,2066,701,1331,788,1112,1309,383,1556,152,1234,370,1182,329,2015,1214,2043,1354,949,444,1967,948,735,711,1376,777,1561,1161,97,2061,1544,953,1449,2070,91,1727,192,1656,1282,377,2172,894,1021,1347,598,314,1399,106,1953,1774,926,1470,1946,348,1815,838,112,1204,333,991,220,585,1232,2091,620,896,1192,743,560,1993,1217,1180,236,1089,694,1886,1384,1101,1294,1753,1142,1795,1391,1837,566,895,661,22,574,1585,1770,399,1942,652,2165,1720,102,947,872,101,1313,846,1634,1523,2006,760,42,203,672,17,423,1696,295,1685,1657,907,1904,689,1983"
