"rt","response","trial_type","trial_index","time_elapsed","internal_node_id","part_ID","ID_DATE","screen_id","understand_correct","stimulus","arousal","valence","img_id","tested_trial_idx"
"6112","0","html-button-response","0","6116","0.0-0.0","60833ce5197d68cff9df1b83","60833ce5197d68cff9df1b83_20240207","","","","","","",""
"6329","[object Object]","survey-html-form","1","12959","0.0-1.0","60833ce5197d68cff9df1b83","60833ce5197d68cff9df1b83_20240207","prolific_id_page","","","","","",""
"88997","0","html-button-response","2","101959","0.0-2.0","60833ce5197d68cff9df1b83","60833ce5197d68cff9df1b83_20240207","","","","","","",""
"32556","0","html-button-response","3","135041","0.0-3.0-0.0","60833ce5197d68cff9df1b83","60833ce5197d68cff9df1b83_20240207","","false","","","","",""
"43648","0","html-button-response","4","181242","0.0-3.1-0.1","60833ce5197d68cff9df1b83","60833ce5197d68cff9df1b83_20240207","","true","","","","",""
"1753","0","html-button-response","5","183507","0.0-4.0","60833ce5197d68cff9df1b83","60833ce5197d68cff9df1b83_20240207","","","
<div>
Great! You will now go on to rate the faces.
<br><br>
</div>
","","","",""
"12162","0","html-button-response","6","196182","0.0-5.0","60833ce5197d68cff9df1b83","60833ce5197d68cff9df1b83_20240207","","","","5","5","139",""
"14062","0","html-button-response","7","210747","0.0-6.0","60833ce5197d68cff9df1b83","60833ce5197d68cff9df1b83_20240207","","","","4","3","499",""
"14106","0","html-button-response","8","225357","0.0-7.0","60833ce5197d68cff9df1b83","60833ce5197d68cff9df1b83_20240207","","","","3","2","1755",""
"9582","0","html-button-response","9","235452","0.0-8.0","60833ce5197d68cff9df1b83","60833ce5197d68cff9df1b83_20240207","","","","5","5","2175",""
"10705","0","html-button-response","10","246672","0.0-9.0","60833ce5197d68cff9df1b83","60833ce5197d68cff9df1b83_20240207","","","","8","8","863",""
"10701","0","html-button-response","11","257875","0.0-10.0","60833ce5197d68cff9df1b83","60833ce5197d68cff9df1b83_20240207","","","","4","4","582",""
"17456","0","html-button-response","12","275848","0.0-11.0","60833ce5197d68cff9df1b83","60833ce5197d68cff9df1b83_20240207","","","","2","2","975",""
"8766","0","html-button-response","13","285124","0.0-12.0","60833ce5197d68cff9df1b83","60833ce5197d68cff9df1b83_20240207","","","","9","3","107",""
"10496","0","html-button-response","14","296127","0.0-13.0","60833ce5197d68cff9df1b83","60833ce5197d68cff9df1b83_20240207","","","","7","4","567",""
"6382","0","html-button-response","15","303027","0.0-14.0","60833ce5197d68cff9df1b83","60833ce5197d68cff9df1b83_20240207","","","","5","6","1085",""
"7745","0","html-button-response","16","311284","0.0-15.0","60833ce5197d68cff9df1b83","60833ce5197d68cff9df1b83_20240207","","","","7","9","2071",""
"9031","0","html-button-response","17","320831","0.0-16.0","60833ce5197d68cff9df1b83","60833ce5197d68cff9df1b83_20240207","","","","5","4","1675",""
"30390","0","html-button-response","18","351739","0.0-17.0","60833ce5197d68cff9df1b83","60833ce5197d68cff9df1b83_20240207","","","","3","1","1556",""
"11973","0","html-button-response","19","364219","0.0-18.0","60833ce5197d68cff9df1b83","60833ce5197d68cff9df1b83_20240207","","","","9","7","873",""
"8191","0","html-button-response","20","372918","0.0-19.0","60833ce5197d68cff9df1b83","60833ce5197d68cff9df1b83_20240207","","","","1","2","1001",""
"10717","0","html-button-response","21","384139","0.0-20.0","60833ce5197d68cff9df1b83","60833ce5197d68cff9df1b83_20240207","","","","7","1","1699",""
"6621","0","html-button-response","22","391264","0.0-21.0","60833ce5197d68cff9df1b83","60833ce5197d68cff9df1b83_20240207","","","","4","1","1063",""
"11322","0","html-button-response","23","403091","0.0-22.0","60833ce5197d68cff9df1b83","60833ce5197d68cff9df1b83_20240207","","","","5","3","321",""
"6395","0","html-button-response","24","409997","0.0-23.0","60833ce5197d68cff9df1b83","60833ce5197d68cff9df1b83_20240207","","","","9","2","316",""
"8848","0","html-button-response","25","419351","0.0-24.0","60833ce5197d68cff9df1b83","60833ce5197d68cff9df1b83_20240207","","","","3","2","127",""
"13627","0","html-button-response","26","433482","0.0-25.0","60833ce5197d68cff9df1b83","60833ce5197d68cff9df1b83_20240207","","","","7","7","1918",""
"7009","0","html-button-response","27","440996","0.0-26.0","60833ce5197d68cff9df1b83","60833ce5197d68cff9df1b83_20240207","","","","1","2","1092",""
"5636","0","html-button-response","28","447146","0.0-27.0","60833ce5197d68cff9df1b83","60833ce5197d68cff9df1b83_20240207","","","","5","4","1141",""
"8690","0","html-button-response","29","456350","0.0-28.0","60833ce5197d68cff9df1b83","60833ce5197d68cff9df1b83_20240207","","","","7","5","425",""
"9012","0","html-button-response","30","465865","0.0-29.0","60833ce5197d68cff9df1b83","60833ce5197d68cff9df1b83_20240207","","","","6","8","1227",""
"6591","0","html-button-response","31","472961","0.0-30.0","60833ce5197d68cff9df1b83","60833ce5197d68cff9df1b83_20240207","","","","9","4","290",""
"9995","0","html-button-response","32","483506","0.0-31.0","60833ce5197d68cff9df1b83","60833ce5197d68cff9df1b83_20240207","","","","1","1","403",""
"6225","0","html-button-response","33","490241","0.0-32.0","60833ce5197d68cff9df1b83","60833ce5197d68cff9df1b83_20240207","","","","9","6","889",""
"5856","0","html-button-response","34","496601","0.0-33.0","60833ce5197d68cff9df1b83","60833ce5197d68cff9df1b83_20240207","","","","5","5","1331",""
"13323","0","html-button-response","35","510431","0.0-34.0","60833ce5197d68cff9df1b83","60833ce5197d68cff9df1b83_20240207","","","","9","5","513",""
"6860","0","html-button-response","36","517804","0.0-35.0","60833ce5197d68cff9df1b83","60833ce5197d68cff9df1b83_20240207","","","","1","4","1088",""
"4899","0","html-button-response","37","523212","0.0-36.0","60833ce5197d68cff9df1b83","60833ce5197d68cff9df1b83_20240207","","","","9","9","2033",""
"6000","0","html-button-response","38","529744","0.0-37.0","60833ce5197d68cff9df1b83","60833ce5197d68cff9df1b83_20240207","","","","9","7","1080",""
"5562","0","html-button-response","39","535810","0.0-38.0","60833ce5197d68cff9df1b83","60833ce5197d68cff9df1b83_20240207","","","","2","2","1792",""
"5128","0","html-button-response","40","541450","0.0-39.0","60833ce5197d68cff9df1b83","60833ce5197d68cff9df1b83_20240207","","","","1","5","956",""
"5665","0","html-button-response","41","547631","0.0-40.0","60833ce5197d68cff9df1b83","60833ce5197d68cff9df1b83_20240207","","","","9","3","118",""
"10338","0","html-button-response","42","558483","0.0-41.0","60833ce5197d68cff9df1b83","60833ce5197d68cff9df1b83_20240207","","","","9","9","1366",""
"6763","0","html-button-response","43","565750","0.0-42.0","60833ce5197d68cff9df1b83","60833ce5197d68cff9df1b83_20240207","","","","9","2","76",""
"8305","0","html-button-response","44","574571","0.0-43.0","60833ce5197d68cff9df1b83","60833ce5197d68cff9df1b83_20240207","","","","8","9","1537",""
"5986","0","html-button-response","45","581073","0.0-44.0","60833ce5197d68cff9df1b83","60833ce5197d68cff9df1b83_20240207","","","","9","4","378",""
"4068","0","html-button-response","46","585656","0.0-45.0","60833ce5197d68cff9df1b83","60833ce5197d68cff9df1b83_20240207","","","","1","1","1375",""
"5008","0","html-button-response","47","591177","0.0-46.0","60833ce5197d68cff9df1b83","60833ce5197d68cff9df1b83_20240207","","","","5","5","1477",""
"7063","0","html-button-response","48","598758","0.0-47.0","60833ce5197d68cff9df1b83","60833ce5197d68cff9df1b83_20240207","","","","2","2","533",""
"5578","0","html-button-response","49","604841","0.0-48.0","60833ce5197d68cff9df1b83","60833ce5197d68cff9df1b83_20240207","","","","5","5","2012",""
"6368","0","html-button-response","50","611711","0.0-49.0","60833ce5197d68cff9df1b83","60833ce5197d68cff9df1b83_20240207","","","","1","1","855",""
"8880","0","html-button-response","51","621108","0.0-50.0","60833ce5197d68cff9df1b83","60833ce5197d68cff9df1b83_20240207","","","","5","5","1812",""
"5132","0","html-button-response","52","626746","0.0-51.0","60833ce5197d68cff9df1b83","60833ce5197d68cff9df1b83_20240207","","","","5","5","2127",""
"6625","0","html-button-response","53","633874","0.0-52.0","60833ce5197d68cff9df1b83","60833ce5197d68cff9df1b83_20240207","","","","2","4","2015",""
"6345","0","html-button-response","54","640736","0.0-53.0","60833ce5197d68cff9df1b83","60833ce5197d68cff9df1b83_20240207","","","","1","2","949",""
"7744","0","html-button-response","55","648993","0.0-54.0","60833ce5197d68cff9df1b83","60833ce5197d68cff9df1b83_20240207","","","","9","4","183",""
"5901","0","html-button-response","56","655396","0.0-55.0","60833ce5197d68cff9df1b83","60833ce5197d68cff9df1b83_20240207","","","","5","4","1101",""
"8266","0","html-button-response","57","664166","0.0-56.0","60833ce5197d68cff9df1b83","60833ce5197d68cff9df1b83_20240207","","","","7","6","1433",""
"8280","0","html-button-response","58","672964","0.0-57.0","60833ce5197d68cff9df1b83","60833ce5197d68cff9df1b83_20240207","","","","7","2","117",""
"5019","0","html-button-response","59","678499","0.0-58.0","60833ce5197d68cff9df1b83","60833ce5197d68cff9df1b83_20240207","","","","5","5","1501",""
"9976","0","html-button-response","60","688990","0.0-59.0","60833ce5197d68cff9df1b83","60833ce5197d68cff9df1b83_20240207","","","","1","3","1729",""
"5293","0","html-button-response","61","694788","0.0-60.0","60833ce5197d68cff9df1b83","60833ce5197d68cff9df1b83_20240207","","","","1","4","1456",""
"8323","0","html-button-response","62","703616","0.0-61.0","60833ce5197d68cff9df1b83","60833ce5197d68cff9df1b83_20240207","","","","7","7","2134",""
"7845","0","html-button-response","63","711970","0.0-62.0","60833ce5197d68cff9df1b83","60833ce5197d68cff9df1b83_20240207","","","","2","3","724",""
"7353","0","html-button-response","64","719837","0.0-63.0","60833ce5197d68cff9df1b83","60833ce5197d68cff9df1b83_20240207","","","","7","9","1760",""
"14309","0","html-button-response","65","734650","0.0-64.0","60833ce5197d68cff9df1b83","60833ce5197d68cff9df1b83_20240207","","","","2","2","1597",""
"5852","0","html-button-response","66","741018","0.0-65.0","60833ce5197d68cff9df1b83","60833ce5197d68cff9df1b83_20240207","","","","9","5","614",""
"7306","0","html-button-response","67","748834","0.0-66.0","60833ce5197d68cff9df1b83","60833ce5197d68cff9df1b83_20240207","","","","2","2","1231",""
"9599","0","html-button-response","68","758937","0.0-67.0","60833ce5197d68cff9df1b83","60833ce5197d68cff9df1b83_20240207","","","","9","4","430",""
"8014","0","html-button-response","69","767465","0.0-68.0","60833ce5197d68cff9df1b83","60833ce5197d68cff9df1b83_20240207","","","","5","5","1003",""
"9464","0","html-button-response","70","777439","0.0-69.0","60833ce5197d68cff9df1b83","60833ce5197d68cff9df1b83_20240207","","","","9","4","410",""
"7230","0","html-button-response","71","785171","0.0-70.0","60833ce5197d68cff9df1b83","60833ce5197d68cff9df1b83_20240207","","","","7","9","1551",""
"7493","0","html-button-response","72","793174","0.0-71.0","60833ce5197d68cff9df1b83","60833ce5197d68cff9df1b83_20240207","","","","7","9","1525",""
"7078","0","html-button-response","73","800755","0.0-72.0","60833ce5197d68cff9df1b83","60833ce5197d68cff9df1b83_20240207","","","","3","5","991",""
"8174","0","html-button-response","74","809433","0.0-73.0","60833ce5197d68cff9df1b83","60833ce5197d68cff9df1b83_20240207","","","","5","3","878",""
"5492","0","html-button-response","75","815447","0.0-74.0","60833ce5197d68cff9df1b83","60833ce5197d68cff9df1b83_20240207","","","","7","9","1723",""
"20828","0","html-button-response","76","836778","0.0-75.0","60833ce5197d68cff9df1b83","60833ce5197d68cff9df1b83_20240207","","","","8","6","1132",""
"5972","0","html-button-response","77","843266","0.0-76.0","60833ce5197d68cff9df1b83","60833ce5197d68cff9df1b83_20240207","","","","9","4","625",""
"4197","0","html-button-response","78","847970","0.0-77.0","60833ce5197d68cff9df1b83","60833ce5197d68cff9df1b83_20240207","","","","5","5","1848",""
"6312","0","html-button-response","79","854786","0.0-78.0","60833ce5197d68cff9df1b83","60833ce5197d68cff9df1b83_20240207","","","","7","7","1251",""
"9031","0","html-button-response","80","864326","0.0-79.0","60833ce5197d68cff9df1b83","60833ce5197d68cff9df1b83_20240207","","","","3","2","399",""
"4298","0","html-button-response","81","869133","0.0-80.0","60833ce5197d68cff9df1b83","60833ce5197d68cff9df1b83_20240207","","","","5","5","1489",""
"6519","0","html-button-response","82","876220","0.0-81.0","60833ce5197d68cff9df1b83","60833ce5197d68cff9df1b83_20240207","","","","2","2","152",""
"7134","0","html-button-response","83","883871","0.0-82.0","60833ce5197d68cff9df1b83","60833ce5197d68cff9df1b83_20240207","","","","9","5","938",""
"38343","0","html-button-response","84","922728","0.0-83.0","60833ce5197d68cff9df1b83","60833ce5197d68cff9df1b83_20240207","","","","5","5","2089",""
"6148","0","html-button-response","85","929388","0.0-84.0","60833ce5197d68cff9df1b83","60833ce5197d68cff9df1b83_20240207","","","","7","5","1288",""
"7172","0","html-button-response","86","937076","0.0-85.0","60833ce5197d68cff9df1b83","60833ce5197d68cff9df1b83_20240207","","","","2","2","2106",""
"4957","0","html-button-response","87","942544","0.0-86.0","60833ce5197d68cff9df1b83","60833ce5197d68cff9df1b83_20240207","","","","2","2","1415",""
"5991","0","html-button-response","88","949045","0.0-87.0","60833ce5197d68cff9df1b83","60833ce5197d68cff9df1b83_20240207","","","","4","3","1974",""
"3672","0","html-button-response","89","953230","0.0-88.0","60833ce5197d68cff9df1b83","60833ce5197d68cff9df1b83_20240207","","","","1","1","1219",""
"5247","0","html-button-response","90","958982","0.0-89.0","60833ce5197d68cff9df1b83","60833ce5197d68cff9df1b83_20240207","","","","1","6","1297",""
"5958","0","html-button-response","91","965455","0.0-90.0","60833ce5197d68cff9df1b83","60833ce5197d68cff9df1b83_20240207","","","","8","9","1743",""
"4934","0","html-button-response","92","970894","0.0-91.0","60833ce5197d68cff9df1b83","60833ce5197d68cff9df1b83_20240207","","","","5","5","1276",""
"7398","0","html-button-response","93","978795","0.0-92.0","60833ce5197d68cff9df1b83","60833ce5197d68cff9df1b83_20240207","","","","7","9","1863",""
"5368","0","html-button-response","94","984670","0.0-93.0","60833ce5197d68cff9df1b83","60833ce5197d68cff9df1b83_20240207","","","","3","5","1517",""
"6204","0","html-button-response","95","991375","0.0-94.0","60833ce5197d68cff9df1b83","60833ce5197d68cff9df1b83_20240207","","","","5","4","916",""
"5105","0","html-button-response","96","996993","0.0-95.0","60833ce5197d68cff9df1b83","60833ce5197d68cff9df1b83_20240207","","","","5","5","1658",""
"6956","0","html-button-response","97","1004455","0.0-96.0","60833ce5197d68cff9df1b83","60833ce5197d68cff9df1b83_20240207","","","","3","3","1807",""
"7337","0","html-button-response","98","1012301","0.0-97.0","60833ce5197d68cff9df1b83","60833ce5197d68cff9df1b83_20240207","","","","2","2","296",""
"5671","0","html-button-response","99","1018473","0.0-98.0","60833ce5197d68cff9df1b83","60833ce5197d68cff9df1b83_20240207","","","","5","4","2157",""
"7942","0","html-button-response","100","1026926","0.0-99.0","60833ce5197d68cff9df1b83","60833ce5197d68cff9df1b83_20240207","","","","9","3","346",""
"3574","0","html-button-response","101","1031013","0.0-100.0","60833ce5197d68cff9df1b83","60833ce5197d68cff9df1b83_20240207","","","","5","5","2007",""
"5443","0","html-button-response","102","1036959","0.0-101.0","60833ce5197d68cff9df1b83","60833ce5197d68cff9df1b83_20240207","","","","2","2","116",""
"6942","0","html-button-response","103","1044408","0.0-102.0","60833ce5197d68cff9df1b83","60833ce5197d68cff9df1b83_20240207","","","","9","1","96",""
"6256","0","html-button-response","104","1051165","0.0-103.0","60833ce5197d68cff9df1b83","60833ce5197d68cff9df1b83_20240207","","","","9","3","188",""
"5012","0","html-button-response","105","1056692","0.0-104.0","60833ce5197d68cff9df1b83","60833ce5197d68cff9df1b83_20240207","","","","1","4","595",""
"6310","0","html-button-response","106","1063539","0.0-105.0","60833ce5197d68cff9df1b83","60833ce5197d68cff9df1b83_20240207","","","","5","9","1046",""
"5012","0","html-button-response","107","1069059","0.0-106.0","60833ce5197d68cff9df1b83","60833ce5197d68cff9df1b83_20240207","","","","5","9","1527",""
"6121","0","html-button-response","108","1075720","0.0-107.0","60833ce5197d68cff9df1b83","60833ce5197d68cff9df1b83_20240207","","","","3","1","285",""
"4722","0","html-button-response","109","1080955","0.0-108.0","60833ce5197d68cff9df1b83","60833ce5197d68cff9df1b83_20240207","","","","2","5","1334",""
"4127","0","html-button-response","110","1085598","0.0-109.0","60833ce5197d68cff9df1b83","60833ce5197d68cff9df1b83_20240207","","","","5","5","978",""
"5884","0","html-button-response","111","1091995","0.0-110.0","60833ce5197d68cff9df1b83","60833ce5197d68cff9df1b83_20240207","","","","5","4","995",""
"5558","0","html-button-response","112","1098056","0.0-111.0","60833ce5197d68cff9df1b83","60833ce5197d68cff9df1b83_20240207","","","","9","9","1054",""
"8736","0","html-button-response","113","1107331","0.0-112.0","60833ce5197d68cff9df1b83","60833ce5197d68cff9df1b83_20240207","","","","9","3","198",""
"4127","0","html-button-response","114","1111975","0.0-113.0","60833ce5197d68cff9df1b83","60833ce5197d68cff9df1b83_20240207","","","","9","4","251",""
"4402","0","html-button-response","115","1116887","0.0-114.0","60833ce5197d68cff9df1b83","60833ce5197d68cff9df1b83_20240207","","","","9","3","535",""
"8535","0","html-button-response","116","1125925","0.0-115.0","60833ce5197d68cff9df1b83","60833ce5197d68cff9df1b83_20240207","","","","3","3","1426",""
"4419","0","html-button-response","117","1130851","0.0-116.0","60833ce5197d68cff9df1b83","60833ce5197d68cff9df1b83_20240207","","","","7","9","1704",""
"4069","0","html-button-response","118","1135435","0.0-117.0","60833ce5197d68cff9df1b83","60833ce5197d68cff9df1b83_20240207","","","","8","9","1522",""
"3787","0","html-button-response","119","1139732","0.0-118.0","60833ce5197d68cff9df1b83","60833ce5197d68cff9df1b83_20240207","","","","9","3","371",""
"4343","0","html-button-response","120","1144577","0.0-119.0","60833ce5197d68cff9df1b83","60833ce5197d68cff9df1b83_20240207","","","","5","5","2063",""
"3934","0","html-button-response","121","1149025","0.0-120.0","60833ce5197d68cff9df1b83","60833ce5197d68cff9df1b83_20240207","","","","4","4","1794",""
"6112","0","html-button-response","122","1155647","0.0-121.0","60833ce5197d68cff9df1b83","60833ce5197d68cff9df1b83_20240207","","","","9","4","707",""
"4680","0","html-button-response","123","1160845","0.0-122.0","60833ce5197d68cff9df1b83","60833ce5197d68cff9df1b83_20240207","","","","9","4","385",""
"4362","0","html-button-response","124","1165720","0.0-123.0","60833ce5197d68cff9df1b83","60833ce5197d68cff9df1b83_20240207","","","","9","6","1081",""
"3506","0","html-button-response","125","1169733","0.0-124.0","60833ce5197d68cff9df1b83","60833ce5197d68cff9df1b83_20240207","","","","5","5","810",""
"3708","0","html-button-response","126","1173956","0.0-125.0","60833ce5197d68cff9df1b83","60833ce5197d68cff9df1b83_20240207","","","","5","5","968",""
"6788","0","html-button-response","127","1181253","0.0-126.0","60833ce5197d68cff9df1b83","60833ce5197d68cff9df1b83_20240207","","","","1","3","1573",""
"8217","0","html-button-response","128","1189982","0.0-127.0","60833ce5197d68cff9df1b83","60833ce5197d68cff9df1b83_20240207","","","","9","3","301",""
"6050","0","html-button-response","129","1196544","0.0-128.0","60833ce5197d68cff9df1b83","60833ce5197d68cff9df1b83_20240207","","","","2","2","1700",""
"8919","0","html-button-response","130","1205966","0.0-129.0","60833ce5197d68cff9df1b83","60833ce5197d68cff9df1b83_20240207","","","","3","3","844",""
"8315","0","html-button-response","131","1214785","0.0-130.0","60833ce5197d68cff9df1b83","60833ce5197d68cff9df1b83_20240207","","","","7","8","875",""
"7077","0","html-button-response","132","1222367","0.0-131.0","60833ce5197d68cff9df1b83","60833ce5197d68cff9df1b83_20240207","","","","4","4","1281",""
"4102","0","html-button-response","133","1226980","0.0-132.0","60833ce5197d68cff9df1b83","60833ce5197d68cff9df1b83_20240207","","","","5","5","2006",""
"6965","0","html-button-response","134","1234455","0.0-133.0","60833ce5197d68cff9df1b83","60833ce5197d68cff9df1b83_20240207","","","","3","4","2051",""
"3714","0","html-button-response","135","1238672","0.0-134.0","60833ce5197d68cff9df1b83","60833ce5197d68cff9df1b83_20240207","","","","2","3","1612",""
"3972","0","html-button-response","136","1243151","0.0-135.0","60833ce5197d68cff9df1b83","60833ce5197d68cff9df1b83_20240207","","","","9","2","525",""
"4574","0","html-button-response","137","1248235","0.0-136.0","60833ce5197d68cff9df1b83","60833ce5197d68cff9df1b83_20240207","","","","7","9","1721",""
"5508","0","html-button-response","138","1254257","0.0-137.0","60833ce5197d68cff9df1b83","60833ce5197d68cff9df1b83_20240207","","","","7","3","710",""
"5414","0","html-button-response","139","1260182","0.0-138.0","60833ce5197d68cff9df1b83","60833ce5197d68cff9df1b83_20240207","","","","9","3","590",""
"4712","0","html-button-response","140","1265410","0.0-139.0","60833ce5197d68cff9df1b83","60833ce5197d68cff9df1b83_20240207","","","","2","3","1401",""
"5163","0","html-button-response","141","1271080","0.0-140.0","60833ce5197d68cff9df1b83","60833ce5197d68cff9df1b83_20240207","","","","9","4","31",""
"3287","0","html-button-response","142","1274875","0.0-141.0","60833ce5197d68cff9df1b83","60833ce5197d68cff9df1b83_20240207","","","","7","9","2086",""
"4523","0","html-button-response","143","1279914","0.0-142.0","60833ce5197d68cff9df1b83","60833ce5197d68cff9df1b83_20240207","","","","9","4","356",""
"6854","0","html-button-response","144","1287280","0.0-143.0","60833ce5197d68cff9df1b83","60833ce5197d68cff9df1b83_20240207","","","","9","3","201",""
"5887","0","html-button-response","145","1293685","0.0-144.0","60833ce5197d68cff9df1b83","60833ce5197d68cff9df1b83_20240207","","","","7","9","2085",""
"7572","0","html-button-response","146","1301762","0.0-145.0","60833ce5197d68cff9df1b83","60833ce5197d68cff9df1b83_20240207","","","","3","3","1386",""
"4218","0","html-button-response","147","1306510","0.0-146.0","60833ce5197d68cff9df1b83","60833ce5197d68cff9df1b83_20240207","","","","1","4","1012",""
"4164","0","html-button-response","148","1311175","0.0-147.0","60833ce5197d68cff9df1b83","60833ce5197d68cff9df1b83_20240207","","","","9","2","132",""
"4035","0","html-button-response","149","1315728","0.0-148.0","60833ce5197d68cff9df1b83","60833ce5197d68cff9df1b83_20240207","","","","7","9","1383",""
"5403","0","html-button-response","150","1321636","0.0-149.0","60833ce5197d68cff9df1b83","60833ce5197d68cff9df1b83_20240207","","","","3","3","1764",""
"6093","0","html-button-response","151","1328245","0.0-150.0","60833ce5197d68cff9df1b83","60833ce5197d68cff9df1b83_20240207","","","","1","2","766",""
"3195","0","html-button-response","152","1331957","0.0-151.0","60833ce5197d68cff9df1b83","60833ce5197d68cff9df1b83_20240207","","","","9","4","521",""
"4129","0","html-button-response","153","1336593","0.0-152.0","60833ce5197d68cff9df1b83","60833ce5197d68cff9df1b83_20240207","","","","8","9","1717",""
"3490","0","html-button-response","154","1340596","0.0-153.0","60833ce5197d68cff9df1b83","60833ce5197d68cff9df1b83_20240207","","","","5","5","2162",""
"6971","0","html-button-response","155","1348081","0.0-154.0","60833ce5197d68cff9df1b83","60833ce5197d68cff9df1b83_20240207","","","","6","9","2043",""
"3690","0","html-button-response","156","1352282","0.0-155.0","60833ce5197d68cff9df1b83","60833ce5197d68cff9df1b83_20240207","","","","5","5","1479",""
"4604","0","html-button-response","157","1357390","0.0-156.0","60833ce5197d68cff9df1b83","60833ce5197d68cff9df1b83_20240207","","","","9","5","1068",""
"6160","0","html-button-response","158","1364057","0.0-157.0","60833ce5197d68cff9df1b83","60833ce5197d68cff9df1b83_20240207","","","","7","5","1275",""
"5859","0","html-button-response","159","1370425","0.0-158.0","60833ce5197d68cff9df1b83","60833ce5197d68cff9df1b83_20240207","","","","4","4","1830",""
"5055","0","html-button-response","160","1375982","0.0-159.0","60833ce5197d68cff9df1b83","60833ce5197d68cff9df1b83_20240207","","","","3","5","2180",""
"6993","0","html-button-response","161","1383481","0.0-160.0","60833ce5197d68cff9df1b83","60833ce5197d68cff9df1b83_20240207","","","","3","2","501",""
"5163","0","html-button-response","162","1389152","0.0-161.0","60833ce5197d68cff9df1b83","60833ce5197d68cff9df1b83_20240207","","","","2","2","961",""
"5738","0","html-button-response","163","1395399","0.0-162.0","60833ce5197d68cff9df1b83","60833ce5197d68cff9df1b83_20240207","","","","9","4","411",""
"5106","0","html-button-response","164","1401016","0.0-163.0","60833ce5197d68cff9df1b83","60833ce5197d68cff9df1b83_20240207","","","","2","2","1117",""
"5309","0","html-button-response","165","1406828","0.0-164.0","60833ce5197d68cff9df1b83","60833ce5197d68cff9df1b83_20240207","","","","1","1","1364",""
"4040","0","html-button-response","166","1411373","0.0-165.0","60833ce5197d68cff9df1b83","60833ce5197d68cff9df1b83_20240207","","","","1","1","1036",""
"7058","0","html-button-response","167","1418935","0.0-166.0","60833ce5197d68cff9df1b83","60833ce5197d68cff9df1b83_20240207","","","","5","5","1762",""
"7842","0","html-button-response","168","1427289","0.0-167.0","60833ce5197d68cff9df1b83","60833ce5197d68cff9df1b83_20240207","","","","4","4","1651",""
"8863","0","html-button-response","169","1436657","0.0-168.0","60833ce5197d68cff9df1b83","60833ce5197d68cff9df1b83_20240207","","","","3","4","2036",""
"6340","0","html-button-response","170","1443504","0.0-169.0","60833ce5197d68cff9df1b83","60833ce5197d68cff9df1b83_20240207","","","","4","5","2152",""
"4379","0","html-button-response","171","1448441","0.0-170.0","60833ce5197d68cff9df1b83","60833ce5197d68cff9df1b83_20240207","","","","5","5","1332",""
"4381","0","html-button-response","172","1453367","0.0-171.0","60833ce5197d68cff9df1b83","60833ce5197d68cff9df1b83_20240207","","","","5","5","1955",""
"4866","0","html-button-response","173","1458745","0.0-172.0","60833ce5197d68cff9df1b83","60833ce5197d68cff9df1b83_20240207","","","","2","3","1412",""
"5732","0","html-button-response","174","1464985","0.0-173.0","60833ce5197d68cff9df1b83","60833ce5197d68cff9df1b83_20240207","","","","9","4","902",""
"4925","0","html-button-response","175","1470421","0.0-174.0","60833ce5197d68cff9df1b83","60833ce5197d68cff9df1b83_20240207","","","","9","2","9",""
"7824","0","html-button-response","176","1478747","0.0-175.0","60833ce5197d68cff9df1b83","60833ce5197d68cff9df1b83_20240207","","","","4","7","1385",""
"4665","0","html-button-response","177","1483922","0.0-176.0","60833ce5197d68cff9df1b83","60833ce5197d68cff9df1b83_20240207","","","","6","9","1709",""
"3830","0","html-button-response","178","1488264","0.0-177.0","60833ce5197d68cff9df1b83","60833ce5197d68cff9df1b83_20240207","","","","9","2","145",""
"7747","0","html-button-response","179","1496522","0.0-178.0","60833ce5197d68cff9df1b83","60833ce5197d68cff9df1b83_20240207","","","","7","1","529",""
"4532","0","html-button-response","180","1501569","0.0-179.0","60833ce5197d68cff9df1b83","60833ce5197d68cff9df1b83_20240207","","","","5","5","1619",""
"6240","0","html-button-response","181","1508319","0.0-180.0","60833ce5197d68cff9df1b83","60833ce5197d68cff9df1b83_20240207","","","","5","5","1646",""
"7210","0","html-button-response","182","1516038","0.0-181.0","60833ce5197d68cff9df1b83","60833ce5197d68cff9df1b83_20240207","","","","3","3","817",""
"4931","0","html-button-response","183","1521482","0.0-182.0","60833ce5197d68cff9df1b83","60833ce5197d68cff9df1b83_20240207","","","","1","4","1934",""
"4865","0","html-button-response","184","1526858","0.0-183.0","60833ce5197d68cff9df1b83","60833ce5197d68cff9df1b83_20240207","","","","9","1","102",""
"11293","0","html-button-response","185","1538657","0.0-184.0","60833ce5197d68cff9df1b83","60833ce5197d68cff9df1b83_20240207","","","","9","5","821",""
"6484","0","html-button-response","186","1545647","0.0-185.0","60833ce5197d68cff9df1b83","60833ce5197d68cff9df1b83_20240207","","","","9","4","352",""
"3691","0","html-button-response","187","1549850","0.0-186.0","60833ce5197d68cff9df1b83","60833ce5197d68cff9df1b83_20240207","","","","9","3","215",""
"3083","0","html-button-response","188","1553438","0.0-187.0","60833ce5197d68cff9df1b83","60833ce5197d68cff9df1b83_20240207","","","","9","2","81",""
"3135","0","html-button-response","189","1557077","0.0-188.0","60833ce5197d68cff9df1b83","60833ce5197d68cff9df1b83_20240207","","","","9","2","280",""
"3440","0","html-button-response","190","1561022","0.0-189.0","60833ce5197d68cff9df1b83","60833ce5197d68cff9df1b83_20240207","","","","5","5","1825",""
"7800","0","html-button-response","191","1569339","0.0-190.0","60833ce5197d68cff9df1b83","60833ce5197d68cff9df1b83_20240207","","","","5","5","1321",""
"4480","0","html-button-response","192","1574327","0.0-191.0","60833ce5197d68cff9df1b83","60833ce5197d68cff9df1b83_20240207","","","","2","2","452",""
"5561","0","html-button-response","193","1580402","0.0-192.0","60833ce5197d68cff9df1b83","60833ce5197d68cff9df1b83_20240207","","","","4","4","1000",""
"4613","0","html-button-response","194","1585517","0.0-193.0","60833ce5197d68cff9df1b83","60833ce5197d68cff9df1b83_20240207","","","","1","2","1714",""
"3831","0","html-button-response","195","1589851","0.0-194.0","60833ce5197d68cff9df1b83","60833ce5197d68cff9df1b83_20240207","","","","5","5","1486",""
"5043","0","html-button-response","196","1595402","0.0-195.0","60833ce5197d68cff9df1b83","60833ce5197d68cff9df1b83_20240207","","","","5","5","1797",""
"3776","0","html-button-response","197","1599722","0.0-196.0","60833ce5197d68cff9df1b83","60833ce5197d68cff9df1b83_20240207","","","","9","3","239",""
"6406","0","html-button-response","198","1606643","0.0-197.0","60833ce5197d68cff9df1b83","60833ce5197d68cff9df1b83_20240207","","","","3","3","1352",""
"6014","0","html-button-response","199","1613162","0.0-198.0","60833ce5197d68cff9df1b83","60833ce5197d68cff9df1b83_20240207","","","","2","1","1205",""
"5022","0","html-button-response","200","1618689","0.0-199.0","60833ce5197d68cff9df1b83","60833ce5197d68cff9df1b83_20240207","","","","9","7","1250",""
"4939","0","html-button-response","201","1624134","0.0-200.0","60833ce5197d68cff9df1b83","60833ce5197d68cff9df1b83_20240207","","","","2","2","712",""
"4607","0","html-button-response","202","1629249","0.0-201.0","60833ce5197d68cff9df1b83","60833ce5197d68cff9df1b83_20240207","","","","5","5","1500",""
"4124","0","html-button-response","203","1633885","0.0-202.0","60833ce5197d68cff9df1b83","60833ce5197d68cff9df1b83_20240207","","","","9","2","470",""
"5564","0","html-button-response","204","1639951","0.0-203.0","60833ce5197d68cff9df1b83","60833ce5197d68cff9df1b83_20240207","","","","9","2","111",""
"3537","0","html-button-response","205","1644001","0.0-204.0","60833ce5197d68cff9df1b83","60833ce5197d68cff9df1b83_20240207","","","","9","2","190",""
"6891","0","html-button-response","206","1651397","0.0-205.0","60833ce5197d68cff9df1b83","60833ce5197d68cff9df1b83_20240207","","","","5","1","1989",""
"5394","0","html-button-response","207","1657305","0.0-206.0","60833ce5197d68cff9df1b83","60833ce5197d68cff9df1b83_20240207","","","","2","1","2078",""
"3962","0","html-button-response","208","1661769","0.0-207.0","60833ce5197d68cff9df1b83","60833ce5197d68cff9df1b83_20240207","","","","1","2","467",""
"7770","0","html-button-response","209","1670042","0.0-208.0","60833ce5197d68cff9df1b83","60833ce5197d68cff9df1b83_20240207","","","","7","9","1761",""
"5513","0","html-button-response","210","1676056","0.0-209.0","60833ce5197d68cff9df1b83","60833ce5197d68cff9df1b83_20240207","","","","3","3","1690",""
"3946","0","html-button-response","211","1680511","0.0-210.0","60833ce5197d68cff9df1b83","60833ce5197d68cff9df1b83_20240207","","","","5","5","1496",""
"6015","0","html-button-response","212","1687029","0.0-211.0","60833ce5197d68cff9df1b83","60833ce5197d68cff9df1b83_20240207","","","","1","2","649",""
"3625","0","html-button-response","213","1691161","0.0-212.0","60833ce5197d68cff9df1b83","60833ce5197d68cff9df1b83_20240207","","","","9","2","278",""
"8296","0","html-button-response","214","1699981","0.0-213.0","60833ce5197d68cff9df1b83","60833ce5197d68cff9df1b83_20240207","","","","9","4","593",""
"8601","0","html-button-response","215","1709086","0.0-214.0","60833ce5197d68cff9df1b83","60833ce5197d68cff9df1b83_20240207","","","","6","6","1822",""
"4996","0","html-button-response","216","1714592","0.0-215.0","60833ce5197d68cff9df1b83","60833ce5197d68cff9df1b83_20240207","","","","9","6","899",""
"6411","0","html-button-response","217","1721509","0.0-216.0","60833ce5197d68cff9df1b83","60833ce5197d68cff9df1b83_20240207","","","","8","5","940",""
"5835","0","html-button-response","218","1727851","0.0-217.0","60833ce5197d68cff9df1b83","60833ce5197d68cff9df1b83_20240207","","","","5","5","1121",""
"6697","0","html-button-response","219","1735051","0.0-218.0","60833ce5197d68cff9df1b83","60833ce5197d68cff9df1b83_20240207","","","","8","8","862",""
"7168","0","html-button-response","220","1742724","0.0-219.0","60833ce5197d68cff9df1b83","60833ce5197d68cff9df1b83_20240207","","","","2","2","427",""
"7014","0","html-button-response","221","1750246","0.0-220.0","60833ce5197d68cff9df1b83","60833ce5197d68cff9df1b83_20240207","","","","1","3","1751",""
"13637","0","html-button-response","222","1764399","0.0-221.0","60833ce5197d68cff9df1b83","60833ce5197d68cff9df1b83_20240207","","","","5","1","165",""
"5153","0","html-button-response","223","1770076","0.0-222.0","60833ce5197d68cff9df1b83","60833ce5197d68cff9df1b83_20240207","","","","9","4","419",""
"3772","0","html-button-response","224","1774358","0.0-223.0","60833ce5197d68cff9df1b83","60833ce5197d68cff9df1b83_20240207","","","","5","5","2153",""
"3887","0","html-button-response","225","1778753","0.0-224.0","60833ce5197d68cff9df1b83","60833ce5197d68cff9df1b83_20240207","","","","5","5","1475",""
"2507","0","html-button-response","226","1781775","0.0-225.0","60833ce5197d68cff9df1b83","60833ce5197d68cff9df1b83_20240207","","","Thank you. You have reached the end. 
                       <br>Click the button below to reveal your compensation.
                        <br><br>","","","","139,499,1755,2175,863,582,975,107,567,1085,2071,1675,1556,873,1001,1699,1063,321,316,127,1918,1092,1141,425,1227,290,403,889,1331,513,1088,2033,1080,1792,956,118,1366,76,1537,378,1375,1477,533,2012,855,1812,2127,2015,949,183,1101,1433,117,1501,1729,1456,2134,724,1760,1597,614,1231,430,1003,410,1551,1525,991,878,1723,1132,625,1848,1251,399,1489,152,938,2089,1288,2106,1415,1974,1219,1297,1743,1276,1863,1517,916,1658,1807,296,2157,346,2007,116,96,188,595,1046,1527,285,1334,978,995,1054,198,251,535,1426,1704,1522,371,2063,1794,707,385,1081,810,968,1573,301,1700,844,875,1281,2006,2051,1612,525,1721,710,590,1401,31,2086,356,201,2085,1386,1012,132,1383,1764,766,521,1717,2162,2043,1479,1068,1275,1830,2180,501,961,411,1117,1364,1036,1762,1651,2036,2152,1332,1955,1412,902,9,1385,1709,145,529,1619,1646,817,1934,102,821,352,215,81,280,1825,1321,452,1000,1714,1486,1797,239,1352,1205,1250,712,1500,470,111,190,1989,2078,467,1761,1690,1496,649,278,593,1822,899,940,1121,862,427,1751,165,419,2153,1475"
