"rt","response","trial_type","trial_index","time_elapsed","internal_node_id","part_ID","ID_DATE","screen_id","understand_correct","stimulus","arousal","valence","img_id","tested_trial_idx"
"14462","0","html-button-response","0","14481","0.0-0.0","610df498456dbaeef682c7ca","610df498456dbaeef682c7ca_20240207","","","","","","",""
"5539","[object Object]","survey-html-form","1","20527","0.0-1.0","610df498456dbaeef682c7ca","610df498456dbaeef682c7ca_20240207","prolific_id_page","","","","","",""
"25635","0","html-button-response","2","46166","0.0-2.0","610df498456dbaeef682c7ca","610df498456dbaeef682c7ca_20240207","","","","","","",""
"10722","0","html-button-response","3","57399","0.0-3.0-0.0","610df498456dbaeef682c7ca","610df498456dbaeef682c7ca_20240207","","false","","","","",""
"278285","0","html-button-response","4","338236","0.0-3.1-0.1","610df498456dbaeef682c7ca","610df498456dbaeef682c7ca_20240207","","true","","","","",""
"5059","0","html-button-response","5","343808","0.0-4.0","610df498456dbaeef682c7ca","610df498456dbaeef682c7ca_20240207","","","
<div>
Great! You will now go on to rate the faces.
<br><br>
</div>
","","","",""
"9429","0","html-button-response","6","353772","0.0-5.0","610df498456dbaeef682c7ca","610df498456dbaeef682c7ca_20240207","","","","5","5","1626",""
"31982","0","html-button-response","7","386265","0.0-6.0","610df498456dbaeef682c7ca","610df498456dbaeef682c7ca_20240207","","","","9","3","1207",""
"13533","0","html-button-response","8","400312","0.0-7.0","610df498456dbaeef682c7ca","610df498456dbaeef682c7ca_20240207","","","","9","9","1198",""
"6517","0","html-button-response","9","407347","0.0-8.0","610df498456dbaeef682c7ca","610df498456dbaeef682c7ca_20240207","","","","9","5","1699",""
"9903","0","html-button-response","10","417759","0.0-9.0","610df498456dbaeef682c7ca","610df498456dbaeef682c7ca_20240207","","","","9","3","191",""
"10783","0","html-button-response","11","429051","0.0-10.0","610df498456dbaeef682c7ca","610df498456dbaeef682c7ca_20240207","","","","9","3","9",""
"4423","0","html-button-response","12","433985","0.0-11.0","610df498456dbaeef682c7ca","610df498456dbaeef682c7ca_20240207","","","","5","5","1242",""
"8796","0","html-button-response","13","443300","0.0-12.0","610df498456dbaeef682c7ca","610df498456dbaeef682c7ca_20240207","","","","9","2","676",""
"7108","0","html-button-response","14","450925","0.0-13.0","610df498456dbaeef682c7ca","610df498456dbaeef682c7ca_20240207","","","","9","4","1270",""
"5723","0","html-button-response","15","457167","0.0-14.0","610df498456dbaeef682c7ca","610df498456dbaeef682c7ca_20240207","","","","9","4","748",""
"13133","0","html-button-response","16","470826","0.0-15.0","610df498456dbaeef682c7ca","610df498456dbaeef682c7ca_20240207","","","","5","5","777",""
"13229","0","html-button-response","17","484575","0.0-16.0","610df498456dbaeef682c7ca","610df498456dbaeef682c7ca_20240207","","","","5","5","611",""
"8968","0","html-button-response","18","494053","0.0-17.0","610df498456dbaeef682c7ca","610df498456dbaeef682c7ca_20240207","","","","8","6","108",""
"9025","0","html-button-response","19","503587","0.0-18.0","610df498456dbaeef682c7ca","610df498456dbaeef682c7ca_20240207","","","","9","3","1622",""
"20748","0","html-button-response","20","524847","0.0-19.0","610df498456dbaeef682c7ca","610df498456dbaeef682c7ca_20240207","","","","7","4","1193",""
"5191","0","html-button-response","21","530549","0.0-20.0","610df498456dbaeef682c7ca","610df498456dbaeef682c7ca_20240207","","","","5","5","537",""
"9707","0","html-button-response","22","540762","0.0-21.0","610df498456dbaeef682c7ca","610df498456dbaeef682c7ca_20240207","","","","1","3","14",""
"12995","0","html-button-response","23","554265","0.0-22.0","610df498456dbaeef682c7ca","610df498456dbaeef682c7ca_20240207","","","","7","9","2035",""
"10994","0","html-button-response","24","565763","0.0-23.0","610df498456dbaeef682c7ca","610df498456dbaeef682c7ca_20240207","","","","9","9","184",""
"7879","0","html-button-response","25","574157","0.0-24.0","610df498456dbaeef682c7ca","610df498456dbaeef682c7ca_20240207","","","","7","3","128",""
"10892","0","html-button-response","26","585554","0.0-25.0","610df498456dbaeef682c7ca","610df498456dbaeef682c7ca_20240207","","","","9","2","1571",""
"4771","0","html-button-response","27","590832","0.0-26.0","610df498456dbaeef682c7ca","610df498456dbaeef682c7ca_20240207","","","","5","5","1100",""
"28109","0","html-button-response","28","619457","0.0-27.0","610df498456dbaeef682c7ca","610df498456dbaeef682c7ca_20240207","","","","5","5","1275",""
"12142","0","html-button-response","29","632108","0.0-28.0","610df498456dbaeef682c7ca","610df498456dbaeef682c7ca_20240207","","","","1","3","1903",""
"4535","0","html-button-response","30","637150","0.0-29.0","610df498456dbaeef682c7ca","610df498456dbaeef682c7ca_20240207","","","","5","5","1124",""
"5760","0","html-button-response","31","643427","0.0-30.0","610df498456dbaeef682c7ca","610df498456dbaeef682c7ca_20240207","","","","6","5","2064",""
"5800","0","html-button-response","32","649744","0.0-31.0","610df498456dbaeef682c7ca","610df498456dbaeef682c7ca_20240207","","","","5","5","1452",""
"6530","0","html-button-response","33","656784","0.0-32.0","610df498456dbaeef682c7ca","610df498456dbaeef682c7ca_20240207","","","","6","3","1048",""
"8404","0","html-button-response","34","665701","0.0-33.0","610df498456dbaeef682c7ca","610df498456dbaeef682c7ca_20240207","","","","6","8","62",""
"5199","0","html-button-response","35","671416","0.0-34.0","610df498456dbaeef682c7ca","610df498456dbaeef682c7ca_20240207","","","","6","7","807",""
"5914","0","html-button-response","36","677850","0.0-35.0","610df498456dbaeef682c7ca","610df498456dbaeef682c7ca_20240207","","","","7","7","57",""
"12121","0","html-button-response","37","690482","0.0-36.0","610df498456dbaeef682c7ca","610df498456dbaeef682c7ca_20240207","","","","6","4","2154",""
"4902","0","html-button-response","38","695895","0.0-37.0","610df498456dbaeef682c7ca","610df498456dbaeef682c7ca_20240207","","","","5","5","835",""
"12807","0","html-button-response","39","709219","0.0-38.0","610df498456dbaeef682c7ca","610df498456dbaeef682c7ca_20240207","","","","2","5","1056",""
"6796","0","html-button-response","40","716525","0.0-39.0","610df498456dbaeef682c7ca","610df498456dbaeef682c7ca_20240207","","","","6","7","1094",""
"8103","0","html-button-response","41","725159","0.0-40.0","610df498456dbaeef682c7ca","610df498456dbaeef682c7ca_20240207","","","","7","5","121",""
"5305","0","html-button-response","42","730980","0.0-41.0","610df498456dbaeef682c7ca","610df498456dbaeef682c7ca_20240207","","","","7","5","706",""
"4456","0","html-button-response","43","735952","0.0-42.0","610df498456dbaeef682c7ca","610df498456dbaeef682c7ca_20240207","","","","5","5","464",""
"15593","0","html-button-response","44","752055","0.0-43.0","610df498456dbaeef682c7ca","610df498456dbaeef682c7ca_20240207","","","","5","8","523",""
"4226","0","html-button-response","45","756786","0.0-44.0","610df498456dbaeef682c7ca","610df498456dbaeef682c7ca_20240207","","","","5","5","1464",""
"4870","0","html-button-response","46","762165","0.0-45.0","610df498456dbaeef682c7ca","610df498456dbaeef682c7ca_20240207","","","","2","3","72",""
"4410","0","html-button-response","47","767091","0.0-46.0","610df498456dbaeef682c7ca","610df498456dbaeef682c7ca_20240207","","","","5","5","525",""
"4623","0","html-button-response","48","772218","0.0-47.0","610df498456dbaeef682c7ca","610df498456dbaeef682c7ca_20240207","","","","5","5","439",""
"11985","0","html-button-response","49","784720","0.0-48.0","610df498456dbaeef682c7ca","610df498456dbaeef682c7ca_20240207","","","","3","5","2081",""
"5431","0","html-button-response","50","790663","0.0-49.0","610df498456dbaeef682c7ca","610df498456dbaeef682c7ca_20240207","","","","5","5","586",""
"5559","0","html-button-response","51","796730","0.0-50.0","610df498456dbaeef682c7ca","610df498456dbaeef682c7ca_20240207","","","","5","5","1616",""
"13374","0","html-button-response","52","810621","0.0-51.0","610df498456dbaeef682c7ca","610df498456dbaeef682c7ca_20240207","","","","4","5","1186",""
"4612","0","html-button-response","53","815743","0.0-52.0","610df498456dbaeef682c7ca","610df498456dbaeef682c7ca_20240207","","","","5","5","1267",""
"6509","0","html-button-response","54","822755","0.0-53.0","610df498456dbaeef682c7ca","610df498456dbaeef682c7ca_20240207","","","","5","4","596",""
"5991","0","html-button-response","55","829264","0.0-54.0","610df498456dbaeef682c7ca","610df498456dbaeef682c7ca_20240207","","","","6","3","513",""
"12341","0","html-button-response","56","842129","0.0-55.0","610df498456dbaeef682c7ca","610df498456dbaeef682c7ca_20240207","","","","4","8","1392",""
"4665","0","html-button-response","57","847304","0.0-56.0","610df498456dbaeef682c7ca","610df498456dbaeef682c7ca_20240207","","","","5","5","1684",""
"5656","0","html-button-response","58","853478","0.0-57.0","610df498456dbaeef682c7ca","610df498456dbaeef682c7ca_20240207","","","","9","4","1091",""
"4135","0","html-button-response","59","858120","0.0-58.0","610df498456dbaeef682c7ca","610df498456dbaeef682c7ca_20240207","","","","5","5","970",""
"6112","0","html-button-response","60","864749","0.0-59.0","610df498456dbaeef682c7ca","610df498456dbaeef682c7ca_20240207","","","","5","5","1298",""
"6393","0","html-button-response","61","871656","0.0-60.0","610df498456dbaeef682c7ca","610df498456dbaeef682c7ca_20240207","","","","8","3","1025",""
"5563","0","html-button-response","62","877735","0.0-61.0","610df498456dbaeef682c7ca","610df498456dbaeef682c7ca_20240207","","","","8","7","1745",""
"5243","0","html-button-response","63","883488","0.0-62.0","610df498456dbaeef682c7ca","610df498456dbaeef682c7ca_20240207","","","","6","5","428",""
"5586","0","html-button-response","64","889587","0.0-63.0","610df498456dbaeef682c7ca","610df498456dbaeef682c7ca_20240207","","","","5","5","530",""
"6881","0","html-button-response","65","896975","0.0-64.0","610df498456dbaeef682c7ca","610df498456dbaeef682c7ca_20240207","","","","7","3","698",""
"7512","0","html-button-response","66","904995","0.0-65.0","610df498456dbaeef682c7ca","610df498456dbaeef682c7ca_20240207","","","","6","3","195",""
"7986","0","html-button-response","67","913523","0.0-66.0","610df498456dbaeef682c7ca","610df498456dbaeef682c7ca_20240207","","","","3","7","1735",""
"9481","0","html-button-response","68","923514","0.0-67.0","610df498456dbaeef682c7ca","610df498456dbaeef682c7ca_20240207","","","","4","6","1877",""
"5379","0","html-button-response","69","929407","0.0-68.0","610df498456dbaeef682c7ca","610df498456dbaeef682c7ca_20240207","","","","4","6","153",""
"5475","0","html-button-response","70","935387","0.0-69.0","610df498456dbaeef682c7ca","610df498456dbaeef682c7ca_20240207","","","","6","5","437",""
"4643","0","html-button-response","71","940546","0.0-70.0","610df498456dbaeef682c7ca","610df498456dbaeef682c7ca_20240207","","","","7","5","281",""
"7400","0","html-button-response","72","948450","0.0-71.0","610df498456dbaeef682c7ca","610df498456dbaeef682c7ca_20240207","","","","7","4","550",""
"9084","0","html-button-response","73","958046","0.0-72.0","610df498456dbaeef682c7ca","610df498456dbaeef682c7ca_20240207","","","","2","5","887",""
"7043","0","html-button-response","74","965609","0.0-73.0","610df498456dbaeef682c7ca","610df498456dbaeef682c7ca_20240207","","","","3","5","1224",""
"7758","0","html-button-response","75","973881","0.0-74.0","610df498456dbaeef682c7ca","610df498456dbaeef682c7ca_20240207","","","","2","5","16",""
"6080","0","html-button-response","76","980467","0.0-75.0","610df498456dbaeef682c7ca","610df498456dbaeef682c7ca_20240207","","","","7","5","1662",""
"7726","0","html-button-response","77","988704","0.0-76.0","610df498456dbaeef682c7ca","610df498456dbaeef682c7ca_20240207","","","","4","3","310",""
"5165","0","html-button-response","78","994387","0.0-77.0","610df498456dbaeef682c7ca","610df498456dbaeef682c7ca_20240207","","","","4","5","303",""
"4978","0","html-button-response","79","999869","0.0-78.0","610df498456dbaeef682c7ca","610df498456dbaeef682c7ca_20240207","","","","5","5","1322",""
"4960","0","html-button-response","80","1005347","0.0-79.0","610df498456dbaeef682c7ca","610df498456dbaeef682c7ca_20240207","","","","5","5","1552",""
"6192","0","html-button-response","81","1012044","0.0-80.0","610df498456dbaeef682c7ca","610df498456dbaeef682c7ca_20240207","","","","5","5","1136",""
"5947","0","html-button-response","82","1018515","0.0-81.0","610df498456dbaeef682c7ca","610df498456dbaeef682c7ca_20240207","","","","5","5","1928",""
"4803","0","html-button-response","83","1023827","0.0-82.0","610df498456dbaeef682c7ca","610df498456dbaeef682c7ca_20240207","","","","5","5","1627",""
"6891","0","html-button-response","84","1031227","0.0-83.0","610df498456dbaeef682c7ca","610df498456dbaeef682c7ca_20240207","","","","1","5","2084",""
"7591","0","html-button-response","85","1039339","0.0-84.0","610df498456dbaeef682c7ca","610df498456dbaeef682c7ca_20240207","","","","9","7","223",""
"5286","0","html-button-response","86","1045132","0.0-85.0","610df498456dbaeef682c7ca","610df498456dbaeef682c7ca_20240207","","","","5","5","2178",""
"5142","0","html-button-response","87","1050788","0.0-86.0","610df498456dbaeef682c7ca","610df498456dbaeef682c7ca_20240207","","","","5","5","980",""
"4745","0","html-button-response","88","1056044","0.0-87.0","610df498456dbaeef682c7ca","610df498456dbaeef682c7ca_20240207","","","","5","5","838",""
"5847","0","html-button-response","89","1062404","0.0-88.0","610df498456dbaeef682c7ca","610df498456dbaeef682c7ca_20240207","","","","7","5","149",""
"4142","0","html-button-response","90","1067054","0.0-89.0","610df498456dbaeef682c7ca","610df498456dbaeef682c7ca_20240207","","","","5","5","2112",""
"5915","0","html-button-response","91","1073477","0.0-90.0","610df498456dbaeef682c7ca","610df498456dbaeef682c7ca_20240207","","","","6","5","99",""
"4452","0","html-button-response","92","1078441","0.0-91.0","610df498456dbaeef682c7ca","610df498456dbaeef682c7ca_20240207","","","","5","5","1310",""
"3607","0","html-button-response","93","1082566","0.0-92.0","610df498456dbaeef682c7ca","610df498456dbaeef682c7ca_20240207","","","","5","5","1643",""
"7298","0","html-button-response","94","1090371","0.0-93.0","610df498456dbaeef682c7ca","610df498456dbaeef682c7ca_20240207","","","","9","8","2096",""
"8455","0","html-button-response","95","1099336","0.0-94.0","610df498456dbaeef682c7ca","610df498456dbaeef682c7ca_20240207","","","","8","5","870",""
"5038","0","html-button-response","96","1104889","0.0-95.0","610df498456dbaeef682c7ca","610df498456dbaeef682c7ca_20240207","","","","5","5","1840",""
"3641","0","html-button-response","97","1109048","0.0-96.0","610df498456dbaeef682c7ca","610df498456dbaeef682c7ca_20240207","","","","5","5","1008",""
"5211","0","html-button-response","98","1114781","0.0-97.0","610df498456dbaeef682c7ca","610df498456dbaeef682c7ca_20240207","","","","5","5","1162",""
"6791","0","html-button-response","99","1122092","0.0-98.0","610df498456dbaeef682c7ca","610df498456dbaeef682c7ca_20240207","","","","9","7","692",""
"5600","0","html-button-response","100","1128211","0.0-99.0","610df498456dbaeef682c7ca","610df498456dbaeef682c7ca_20240207","","","","9","7","188",""
"4044","0","html-button-response","101","1132761","0.0-100.0","610df498456dbaeef682c7ca","610df498456dbaeef682c7ca_20240207","","","","5","5","1498",""
"4051","0","html-button-response","102","1137337","0.0-101.0","610df498456dbaeef682c7ca","610df498456dbaeef682c7ca_20240207","","","","5","5","1454",""
"4715","0","html-button-response","103","1142572","0.0-102.0","610df498456dbaeef682c7ca","610df498456dbaeef682c7ca_20240207","","","","5","5","2143",""
"5167","0","html-button-response","104","1148244","0.0-103.0","610df498456dbaeef682c7ca","610df498456dbaeef682c7ca_20240207","","","","5","5","1826",""
"4163","0","html-button-response","105","1152924","0.0-104.0","610df498456dbaeef682c7ca","610df498456dbaeef682c7ca_20240207","","","","5","5","1497",""
"4198","0","html-button-response","106","1157627","0.0-105.0","610df498456dbaeef682c7ca","610df498456dbaeef682c7ca_20240207","","","","5","5","2089",""
"6926","0","html-button-response","107","1165073","0.0-106.0","610df498456dbaeef682c7ca","610df498456dbaeef682c7ca_20240207","","","","9","8","394",""
"6102","0","html-button-response","108","1171683","0.0-107.0","610df498456dbaeef682c7ca","610df498456dbaeef682c7ca_20240207","","","","5","5","1161",""
"6711","0","html-button-response","109","1178908","0.0-108.0","610df498456dbaeef682c7ca","610df498456dbaeef682c7ca_20240207","","","","9","9","1695",""
"3746","0","html-button-response","110","1183168","0.0-109.0","610df498456dbaeef682c7ca","610df498456dbaeef682c7ca_20240207","","","","5","5","2139",""
"3825","0","html-button-response","111","1187500","0.0-110.0","610df498456dbaeef682c7ca","610df498456dbaeef682c7ca_20240207","","","","5","5","1761",""
"7542","0","html-button-response","112","1195548","0.0-111.0","610df498456dbaeef682c7ca","610df498456dbaeef682c7ca_20240207","","","","9","3","652",""
"7089","0","html-button-response","113","1203145","0.0-112.0","610df498456dbaeef682c7ca","610df498456dbaeef682c7ca_20240207","","","","5","5","520",""
"6008","0","html-button-response","114","1209663","0.0-113.0","610df498456dbaeef682c7ca","610df498456dbaeef682c7ca_20240207","","","","5","5","1471",""
"10827","0","html-button-response","115","1220997","0.0-114.0","610df498456dbaeef682c7ca","610df498456dbaeef682c7ca_20240207","","","","5","5","1648",""
"5846","0","html-button-response","116","1227347","0.0-115.0","610df498456dbaeef682c7ca","610df498456dbaeef682c7ca_20240207","","","","9","9","1706",""
"5070","0","html-button-response","117","1232922","0.0-116.0","610df498456dbaeef682c7ca","610df498456dbaeef682c7ca_20240207","","","","5","5","793",""
"6821","0","html-button-response","118","1240254","0.0-117.0","610df498456dbaeef682c7ca","610df498456dbaeef682c7ca_20240207","","","","9","9","230",""
"7235","0","html-button-response","119","1248003","0.0-118.0","610df498456dbaeef682c7ca","610df498456dbaeef682c7ca_20240207","","","","5","5","672",""
"14145","0","html-button-response","120","1262658","0.0-119.0","610df498456dbaeef682c7ca","610df498456dbaeef682c7ca_20240207","","","","9","9","1016",""
"8223","0","html-button-response","121","1271387","0.0-120.0","610df498456dbaeef682c7ca","610df498456dbaeef682c7ca_20240207","","","","5","5","1151",""
"13465","0","html-button-response","122","1285363","0.0-121.0","610df498456dbaeef682c7ca","610df498456dbaeef682c7ca_20240207","","","","9","5","1871",""
"4750","0","html-button-response","123","1290628","0.0-122.0","610df498456dbaeef682c7ca","610df498456dbaeef682c7ca_20240207","","","","5","5","566",""
"5084","0","html-button-response","124","1296226","0.0-123.0","610df498456dbaeef682c7ca","610df498456dbaeef682c7ca_20240207","","","","5","5","2113",""
"14933","0","html-button-response","125","1311679","0.0-124.0","610df498456dbaeef682c7ca","610df498456dbaeef682c7ca_20240207","","","","9","8","422",""
"4339","0","html-button-response","126","1316526","0.0-125.0","610df498456dbaeef682c7ca","610df498456dbaeef682c7ca_20240207","","","","5","5","1615",""
"5108","0","html-button-response","127","1322144","0.0-126.0","610df498456dbaeef682c7ca","610df498456dbaeef682c7ca_20240207","","","","9","8","469",""
"4403","0","html-button-response","128","1327058","0.0-127.0","610df498456dbaeef682c7ca","610df498456dbaeef682c7ca_20240207","","","","9","3","182",""
"5433","0","html-button-response","129","1333004","0.0-128.0","610df498456dbaeef682c7ca","610df498456dbaeef682c7ca_20240207","","","","9","3","2039",""
"6628","0","html-button-response","130","1340146","0.0-129.0","610df498456dbaeef682c7ca","610df498456dbaeef682c7ca_20240207","","","","9","6","577",""
"4025","0","html-button-response","131","1344688","0.0-130.0","610df498456dbaeef682c7ca","610df498456dbaeef682c7ca_20240207","","","","5","5","208",""
"4375","0","html-button-response","132","1349573","0.0-131.0","610df498456dbaeef682c7ca","610df498456dbaeef682c7ca_20240207","","","","5","5","1349",""
"4174","0","html-button-response","133","1354258","0.0-132.0","610df498456dbaeef682c7ca","610df498456dbaeef682c7ca_20240207","","","","5","5","1637",""
"4066","0","html-button-response","134","1358836","0.0-133.0","610df498456dbaeef682c7ca","610df498456dbaeef682c7ca_20240207","","","","5","5","1982",""
"7573","0","html-button-response","135","1366916","0.0-134.0","610df498456dbaeef682c7ca","610df498456dbaeef682c7ca_20240207","","","","5","5","2022",""
"16804","0","html-button-response","136","1384238","0.0-135.0","610df498456dbaeef682c7ca","610df498456dbaeef682c7ca_20240207","","","","5","5","730",""
"14195","0","html-button-response","137","1398941","0.0-136.0","610df498456dbaeef682c7ca","610df498456dbaeef682c7ca_20240207","","","","9","6","88",""
"6012","0","html-button-response","138","1405460","0.0-137.0","610df498456dbaeef682c7ca","610df498456dbaeef682c7ca_20240207","","","","9","6","600",""
"4804","0","html-button-response","139","1410784","0.0-138.0","610df498456dbaeef682c7ca","610df498456dbaeef682c7ca_20240207","","","","5","5","1654",""
"4374","0","html-button-response","140","1415668","0.0-139.0","610df498456dbaeef682c7ca","610df498456dbaeef682c7ca_20240207","","","","9","9","1054",""
"3056","0","html-button-response","141","1419234","0.0-140.0","610df498456dbaeef682c7ca","610df498456dbaeef682c7ca_20240207","","","","5","5","1678",""
"4028","0","html-button-response","142","1423772","0.0-141.0","610df498456dbaeef682c7ca","610df498456dbaeef682c7ca_20240207","","","","5","5","2140",""
"3593","0","html-button-response","143","1427879","0.0-142.0","610df498456dbaeef682c7ca","610df498456dbaeef682c7ca_20240207","","","","5","5","1802",""
"2910","0","html-button-response","144","1431295","0.0-143.0","610df498456dbaeef682c7ca","610df498456dbaeef682c7ca_20240207","","","","5","5","1502",""
"5370","0","html-button-response","145","1437183","0.0-144.0","610df498456dbaeef682c7ca","610df498456dbaeef682c7ca_20240207","","","","9","4","689",""
"3831","0","html-button-response","146","1441524","0.0-145.0","610df498456dbaeef682c7ca","610df498456dbaeef682c7ca_20240207","","","","5","5","1656",""
"6213","0","html-button-response","147","1448256","0.0-146.0","610df498456dbaeef682c7ca","610df498456dbaeef682c7ca_20240207","","","","5","5","179",""
"4059","0","html-button-response","148","1452825","0.0-147.0","610df498456dbaeef682c7ca","610df498456dbaeef682c7ca_20240207","","","","5","5","157",""
"7396","0","html-button-response","149","1460730","0.0-148.0","610df498456dbaeef682c7ca","610df498456dbaeef682c7ca_20240207","","","","5","5","1644",""
"5758","0","html-button-response","150","1466994","0.0-149.0","610df498456dbaeef682c7ca","610df498456dbaeef682c7ca_20240207","","","","5","5","1750",""
"5473","0","html-button-response","151","1472969","0.0-150.0","610df498456dbaeef682c7ca","610df498456dbaeef682c7ca_20240207","","","","9","7","202",""
"4589","0","html-button-response","152","1478065","0.0-151.0","610df498456dbaeef682c7ca","610df498456dbaeef682c7ca_20240207","","","","9","3","712",""
"5680","0","html-button-response","153","1484257","0.0-152.0","610df498456dbaeef682c7ca","610df498456dbaeef682c7ca_20240207","","","","3","6","720",""
"3514","0","html-button-response","154","1488276","0.0-153.0","610df498456dbaeef682c7ca","610df498456dbaeef682c7ca_20240207","","","","5","5","1985",""
"6469","0","html-button-response","155","1495271","0.0-154.0","610df498456dbaeef682c7ca","610df498456dbaeef682c7ca_20240207","","","","5","5","585",""
"3476","0","html-button-response","156","1499267","0.0-155.0","610df498456dbaeef682c7ca","610df498456dbaeef682c7ca_20240207","","","","5","5","146",""
"3775","0","html-button-response","157","1503549","0.0-156.0","610df498456dbaeef682c7ca","610df498456dbaeef682c7ca_20240207","","","","5","5","1276",""
"4985","0","html-button-response","158","1509050","0.0-157.0","610df498456dbaeef682c7ca","610df498456dbaeef682c7ca_20240207","","","","5","5","1605",""
"6988","0","html-button-response","159","1516551","0.0-158.0","610df498456dbaeef682c7ca","610df498456dbaeef682c7ca_20240207","","","","6","6","192",""
"4999","0","html-button-response","160","1522060","0.0-159.0","610df498456dbaeef682c7ca","610df498456dbaeef682c7ca_20240207","","","","5","5","2066",""
"8158","0","html-button-response","161","1530723","0.0-160.0","610df498456dbaeef682c7ca","610df498456dbaeef682c7ca_20240207","","","","7","4","575",""
"6606","0","html-button-response","162","1537833","0.0-161.0","610df498456dbaeef682c7ca","610df498456dbaeef682c7ca_20240207","","","","6","5","2092",""
"8512","0","html-button-response","163","1546854","0.0-162.0","610df498456dbaeef682c7ca","610df498456dbaeef682c7ca_20240207","","","","3","7","1886",""
"6519","0","html-button-response","164","1553881","0.0-163.0","610df498456dbaeef682c7ca","610df498456dbaeef682c7ca_20240207","","","","5","5","1682",""
"5670","0","html-button-response","165","1560060","0.0-164.0","610df498456dbaeef682c7ca","610df498456dbaeef682c7ca_20240207","","","","7","7","905",""
"6280","0","html-button-response","166","1566855","0.0-165.0","610df498456dbaeef682c7ca","610df498456dbaeef682c7ca_20240207","","","","8","5","514",""
"7838","0","html-button-response","167","1575212","0.0-166.0","610df498456dbaeef682c7ca","610df498456dbaeef682c7ca_20240207","","","","1","5","1354",""
"4625","0","html-button-response","168","1580349","0.0-167.0","610df498456dbaeef682c7ca","610df498456dbaeef682c7ca_20240207","","","","5","5","1794",""
"6221","0","html-button-response","169","1587080","0.0-168.0","610df498456dbaeef682c7ca","610df498456dbaeef682c7ca_20240207","","","","5","5","1889",""
"6491","0","html-button-response","170","1594079","0.0-169.0","610df498456dbaeef682c7ca","610df498456dbaeef682c7ca_20240207","","","","9","6","760",""
"4789","0","html-button-response","171","1599375","0.0-170.0","610df498456dbaeef682c7ca","610df498456dbaeef682c7ca_20240207","","","","5","5","788",""
"5140","0","html-button-response","172","1605021","0.0-171.0","610df498456dbaeef682c7ca","610df498456dbaeef682c7ca_20240207","","","","5","5","641",""
"7348","0","html-button-response","173","1612885","0.0-172.0","610df498456dbaeef682c7ca","610df498456dbaeef682c7ca_20240207","","","","9","4","1936",""
"9110","0","html-button-response","174","1622509","0.0-173.0","610df498456dbaeef682c7ca","610df498456dbaeef682c7ca_20240207","","","","9","6","549",""
"6555","0","html-button-response","175","1629574","0.0-174.0","610df498456dbaeef682c7ca","610df498456dbaeef682c7ca_20240207","","","","8","7","485",""
"5609","0","html-button-response","176","1635701","0.0-175.0","610df498456dbaeef682c7ca","610df498456dbaeef682c7ca_20240207","","","","5","5","1107",""
"5712","0","html-button-response","177","1641923","0.0-176.0","610df498456dbaeef682c7ca","610df498456dbaeef682c7ca_20240207","","","","9","7","55",""
"3243","0","html-button-response","178","1645678","0.0-177.0","610df498456dbaeef682c7ca","610df498456dbaeef682c7ca_20240207","","","","5","5","2129",""
"3738","0","html-button-response","179","1649935","0.0-178.0","610df498456dbaeef682c7ca","610df498456dbaeef682c7ca_20240207","","","","5","5","2171",""
"4353","0","html-button-response","180","1654793","0.0-179.0","610df498456dbaeef682c7ca","610df498456dbaeef682c7ca_20240207","","","","5","5","656",""
"7923","0","html-button-response","181","1663235","0.0-180.0","610df498456dbaeef682c7ca","610df498456dbaeef682c7ca_20240207","","","","2","5","1353",""
"9278","0","html-button-response","182","1673027","0.0-181.0","610df498456dbaeef682c7ca","610df498456dbaeef682c7ca_20240207","","","","1","5","1694",""
"13210","0","html-button-response","183","1686742","0.0-182.0","610df498456dbaeef682c7ca","610df498456dbaeef682c7ca_20240207","","","","5","5","1154",""
"4048","0","html-button-response","184","1691307","0.0-183.0","610df498456dbaeef682c7ca","610df498456dbaeef682c7ca_20240207","","","","5","5","1319",""
"6205","0","html-button-response","185","1698027","0.0-184.0","610df498456dbaeef682c7ca","610df498456dbaeef682c7ca_20240207","","","","7","5","1852",""
"4302","0","html-button-response","186","1702852","0.0-185.0","610df498456dbaeef682c7ca","610df498456dbaeef682c7ca_20240207","","","","5","5","631",""
"7319","0","html-button-response","187","1710677","0.0-186.0","610df498456dbaeef682c7ca","610df498456dbaeef682c7ca_20240207","","","","5","5","1969",""
"3637","0","html-button-response","188","1714825","0.0-187.0","610df498456dbaeef682c7ca","610df498456dbaeef682c7ca_20240207","","","","5","5","1077",""
"3714","0","html-button-response","189","1719049","0.0-188.0","610df498456dbaeef682c7ca","610df498456dbaeef682c7ca_20240207","","","","5","5","2174",""
"4139","0","html-button-response","190","1723702","0.0-189.0","610df498456dbaeef682c7ca","610df498456dbaeef682c7ca_20240207","","","","8","5","1362",""
"3324","0","html-button-response","191","1727535","0.0-190.0","610df498456dbaeef682c7ca","610df498456dbaeef682c7ca_20240207","","","","5","5","271",""
"5628","0","html-button-response","192","1733674","0.0-191.0","610df498456dbaeef682c7ca","610df498456dbaeef682c7ca_20240207","","","","2","5","1874",""
"4045","0","html-button-response","193","1738230","0.0-192.0","610df498456dbaeef682c7ca","610df498456dbaeef682c7ca_20240207","","","","5","5","1942",""
"4319","0","html-button-response","194","1743065","0.0-193.0","610df498456dbaeef682c7ca","610df498456dbaeef682c7ca_20240207","","","","5","5","1271",""
"6846","0","html-button-response","195","1750422","0.0-194.0","610df498456dbaeef682c7ca","610df498456dbaeef682c7ca_20240207","","","","2","5","322",""
"4472","0","html-button-response","196","1755403","0.0-195.0","610df498456dbaeef682c7ca","610df498456dbaeef682c7ca_20240207","","","","5","5","1818",""
"7931","0","html-button-response","197","1763845","0.0-196.0","610df498456dbaeef682c7ca","610df498456dbaeef682c7ca_20240207","","","","2","3","2054",""
"6203","0","html-button-response","198","1770564","0.0-197.0","610df498456dbaeef682c7ca","610df498456dbaeef682c7ca_20240207","","","","8","8","61",""
"4706","0","html-button-response","199","1775779","0.0-198.0","610df498456dbaeef682c7ca","610df498456dbaeef682c7ca_20240207","","","","5","5","662",""
"3440","0","html-button-response","200","1779731","0.0-199.0","610df498456dbaeef682c7ca","610df498456dbaeef682c7ca_20240207","","","","5","5","1584",""
"7182","0","html-button-response","201","1787423","0.0-200.0","610df498456dbaeef682c7ca","610df498456dbaeef682c7ca_20240207","","","","5","5","1689",""
"5129","0","html-button-response","202","1793062","0.0-201.0","610df498456dbaeef682c7ca","610df498456dbaeef682c7ca_20240207","","","","9","8","1187",""
"4715","0","html-button-response","203","1798285","0.0-202.0","610df498456dbaeef682c7ca","610df498456dbaeef682c7ca_20240207","","","","6","5","1073",""
"5828","0","html-button-response","204","1804632","0.0-203.0","610df498456dbaeef682c7ca","610df498456dbaeef682c7ca_20240207","","","","9","8","405",""
"10711","0","html-button-response","205","1815855","0.0-204.0","610df498456dbaeef682c7ca","610df498456dbaeef682c7ca_20240207","","","","9","7","23",""
"13269","0","html-button-response","206","1829642","0.0-205.0","610df498456dbaeef682c7ca","610df498456dbaeef682c7ca_20240207","","","","7","6","4",""
"6622","0","html-button-response","207","1836786","0.0-206.0","610df498456dbaeef682c7ca","610df498456dbaeef682c7ca_20240207","","","","5","5","670",""
"8276","0","html-button-response","208","1845570","0.0-207.0","610df498456dbaeef682c7ca","610df498456dbaeef682c7ca_20240207","","","","9","9","1211",""
"5268","0","html-button-response","209","1851356","0.0-208.0","610df498456dbaeef682c7ca","610df498456dbaeef682c7ca_20240207","","","","6","9","2094",""
"4790","0","html-button-response","210","1856657","0.0-209.0","610df498456dbaeef682c7ca","610df498456dbaeef682c7ca_20240207","","","","6","4","17",""
"4256","0","html-button-response","211","1861423","0.0-210.0","610df498456dbaeef682c7ca","610df498456dbaeef682c7ca_20240207","","","","5","5","1681",""
"6147","0","html-button-response","212","1868077","0.0-211.0","610df498456dbaeef682c7ca","610df498456dbaeef682c7ca_20240207","","","","5","5","640",""
"9752","0","html-button-response","213","1878340","0.0-212.0","610df498456dbaeef682c7ca","610df498456dbaeef682c7ca_20240207","","","","5","5","1022",""
"6845","0","html-button-response","214","1885704","0.0-213.0","610df498456dbaeef682c7ca","610df498456dbaeef682c7ca_20240207","","","","5","5","1994",""
"7479","0","html-button-response","215","1893693","0.0-214.0","610df498456dbaeef682c7ca","610df498456dbaeef682c7ca_20240207","","","","8","7","27",""
"4103","0","html-button-response","216","1898315","0.0-215.0","610df498456dbaeef682c7ca","610df498456dbaeef682c7ca_20240207","","","","5","5","839",""
"3612","0","html-button-response","217","1902435","0.0-216.0","610df498456dbaeef682c7ca","610df498456dbaeef682c7ca_20240207","","","","5","5","1974",""
"4500","0","html-button-response","218","1907452","0.0-217.0","610df498456dbaeef682c7ca","610df498456dbaeef682c7ca_20240207","","","","6","5","683",""
"4602","0","html-button-response","219","1912572","0.0-218.0","610df498456dbaeef682c7ca","610df498456dbaeef682c7ca_20240207","","","","5","5","995",""
"5084","0","html-button-response","220","1918171","0.0-219.0","610df498456dbaeef682c7ca","610df498456dbaeef682c7ca_20240207","","","","3","7","535",""
"5298","0","html-button-response","221","1923977","0.0-220.0","610df498456dbaeef682c7ca","610df498456dbaeef682c7ca_20240207","","","","6","5","1573",""
"3844","0","html-button-response","222","1928332","0.0-221.0","610df498456dbaeef682c7ca","610df498456dbaeef682c7ca_20240207","","","","6","5","1400",""
"4349","0","html-button-response","223","1933199","0.0-222.0","610df498456dbaeef682c7ca","610df498456dbaeef682c7ca_20240207","","","","6","4","272",""
"3118","0","html-button-response","224","1936823","0.0-223.0","610df498456dbaeef682c7ca","610df498456dbaeef682c7ca_20240207","","","","5","5","2126",""
"6614","0","html-button-response","225","1943949","0.0-224.0","610df498456dbaeef682c7ca","610df498456dbaeef682c7ca_20240207","","","","4","7","19",""
"4536","0","html-button-response","226","1948995","0.0-225.0","610df498456dbaeef682c7ca","610df498456dbaeef682c7ca_20240207","","","Thank you. You have reached the end. 
                       <br>Click the button below to reveal your compensation.
                        <br><br>","","","","1626,1207,1198,1699,191,9,1242,676,1270,748,777,611,108,1622,1193,537,14,2035,184,128,1571,1100,1275,1903,1124,2064,1452,1048,62,807,57,2154,835,1056,1094,121,706,464,523,1464,72,525,439,2081,586,1616,1186,1267,596,513,1392,1684,1091,970,1298,1025,1745,428,530,698,195,1735,1877,153,437,281,550,887,1224,16,1662,310,303,1322,1552,1136,1928,1627,2084,223,2178,980,838,149,2112,99,1310,1643,2096,870,1840,1008,1162,692,188,1498,1454,2143,1826,1497,2089,394,1161,1695,2139,1761,652,520,1471,1648,1706,793,230,672,1016,1151,1871,566,2113,422,1615,469,182,2039,577,208,1349,1637,1982,2022,730,88,600,1654,1054,1678,2140,1802,1502,689,1656,179,157,1644,1750,202,712,720,1985,585,146,1276,1605,192,2066,575,2092,1886,1682,905,514,1354,1794,1889,760,788,641,1936,549,485,1107,55,2129,2171,656,1353,1694,1154,1319,1852,631,1969,1077,2174,1362,271,1874,1942,1271,322,1818,2054,61,662,1584,1689,1187,1073,405,23,4,670,1211,2094,17,1681,640,1022,1994,27,839,1974,683,995,535,1573,1400,272,2126,19"
