"rt","response","trial_type","trial_index","time_elapsed","internal_node_id","part_ID","ID_DATE","screen_id","understand_correct","stimulus","arousal","valence","img_id","tested_trial_idx"
"1197420","0","html-button-response","0","1197397","0.0-0.0","6569f4f7d5d541a2a1bc5022","6569f4f7d5d541a2a1bc5022_20240207","","","","","","",""
"2870","[object Object]","survey-html-form","1","1200776","0.0-1.0","6569f4f7d5d541a2a1bc5022","6569f4f7d5d541a2a1bc5022_20240207","prolific_id_page","","","","","",""
"34720","0","html-button-response","2","1235497","0.0-2.0","6569f4f7d5d541a2a1bc5022","6569f4f7d5d541a2a1bc5022_20240207","","","","","","",""
"204020","0","html-button-response","3","1440019","0.0-3.0-0.0","6569f4f7d5d541a2a1bc5022","6569f4f7d5d541a2a1bc5022_20240207","","true","","","","",""
"881","0","html-button-response","4","1441406","0.0-4.0","6569f4f7d5d541a2a1bc5022","6569f4f7d5d541a2a1bc5022_20240207","","","
<div>
Great! You will now go on to rate the faces.
<br><br>
</div>
","","","",""
"6446","0","html-button-response","5","1448357","0.0-5.0","6569f4f7d5d541a2a1bc5022","6569f4f7d5d541a2a1bc5022_20240207","","","","5","4","2197",""
"3236","0","html-button-response","6","1452096","0.0-6.0","6569f4f7d5d541a2a1bc5022","6569f4f7d5d541a2a1bc5022_20240207","","","","6","6","742",""
"1001","0","html-button-response","7","1453599","0.0-7.0","6569f4f7d5d541a2a1bc5022","6569f4f7d5d541a2a1bc5022_20240207","","","","1","5","38",""
"846","0","html-button-response","8","1454947","0.0-8.0","6569f4f7d5d541a2a1bc5022","6569f4f7d5d541a2a1bc5022_20240207","","","","1","4","2002",""
"603","0","html-button-response","9","1456052","0.0-9.0","6569f4f7d5d541a2a1bc5022","6569f4f7d5d541a2a1bc5022_20240207","","","","1","5","416",""
"1394","0","html-button-response","10","1457949","0.0-10.0","6569f4f7d5d541a2a1bc5022","6569f4f7d5d541a2a1bc5022_20240207","","","","5","1","841",""
"896","0","html-button-response","11","1459348","0.0-11.0","6569f4f7d5d541a2a1bc5022","6569f4f7d5d541a2a1bc5022_20240207","","","","2","6","1089",""
"548","0","html-button-response","12","1460399","0.0-12.0","6569f4f7d5d541a2a1bc5022","6569f4f7d5d541a2a1bc5022_20240207","","","","2","5","1391",""
"603","0","html-button-response","13","1461505","0.0-13.0","6569f4f7d5d541a2a1bc5022","6569f4f7d5d541a2a1bc5022_20240207","","","","1","4","1479",""
"1793","0","html-button-response","14","1463801","0.0-14.0","6569f4f7d5d541a2a1bc5022","6569f4f7d5d541a2a1bc5022_20240207","","","","5","1","622",""
"1549","0","html-button-response","15","1465852","0.0-15.0","6569f4f7d5d541a2a1bc5022","6569f4f7d5d541a2a1bc5022_20240207","","","","4","9","2159",""
"1794","0","html-button-response","16","1468149","0.0-16.0","6569f4f7d5d541a2a1bc5022","6569f4f7d5d541a2a1bc5022_20240207","","","","9","5","193",""
"2806","0","html-button-response","17","1471458","0.0-17.0","6569f4f7d5d541a2a1bc5022","6569f4f7d5d541a2a1bc5022_20240207","","","","7","7","1370",""
"993","0","html-button-response","18","1472955","0.0-18.0","6569f4f7d5d541a2a1bc5022","6569f4f7d5d541a2a1bc5022_20240207","","","","1","9","421",""
"940","0","html-button-response","19","1474397","0.0-19.0","6569f4f7d5d541a2a1bc5022","6569f4f7d5d541a2a1bc5022_20240207","","","","1","3","1828",""
"1770","0","html-button-response","20","1476670","0.0-20.0","6569f4f7d5d541a2a1bc5022","6569f4f7d5d541a2a1bc5022_20240207","","","","6","5","1314",""
"1139","0","html-button-response","21","1478312","0.0-21.0","6569f4f7d5d541a2a1bc5022","6569f4f7d5d541a2a1bc5022_20240207","","","","6","6","1",""
"2990","0","html-button-response","22","1481817","0.0-22.0","6569f4f7d5d541a2a1bc5022","6569f4f7d5d541a2a1bc5022_20240207","","","","2","6","929",""
"1612","0","html-button-response","23","1483935","0.0-23.0","6569f4f7d5d541a2a1bc5022","6569f4f7d5d541a2a1bc5022_20240207","","","","7","4","139",""
"2081","0","html-button-response","24","1486549","0.0-24.0","6569f4f7d5d541a2a1bc5022","6569f4f7d5d541a2a1bc5022_20240207","","","","7","7","1639",""
"1619","0","html-button-response","25","1488670","0.0-25.0","6569f4f7d5d541a2a1bc5022","6569f4f7d5d541a2a1bc5022_20240207","","","","4","6","1516",""
"1593","0","html-button-response","26","1490766","0.0-26.0","6569f4f7d5d541a2a1bc5022","6569f4f7d5d541a2a1bc5022_20240207","","","","5","7","1453",""
"2884","0","html-button-response","27","1494153","0.0-27.0","6569f4f7d5d541a2a1bc5022","6569f4f7d5d541a2a1bc5022_20240207","","","","5","3","1378",""
"1943","0","html-button-response","28","1496598","0.0-28.0","6569f4f7d5d541a2a1bc5022","6569f4f7d5d541a2a1bc5022_20240207","","","","6","4","657",""
"1373","0","html-button-response","29","1498475","0.0-29.0","6569f4f7d5d541a2a1bc5022","6569f4f7d5d541a2a1bc5022_20240207","","","","8","4","740",""
"999","0","html-button-response","30","1499977","0.0-30.0","6569f4f7d5d541a2a1bc5022","6569f4f7d5d541a2a1bc5022_20240207","","","","2","6","496",""
"1163","0","html-button-response","31","1501643","0.0-31.0","6569f4f7d5d541a2a1bc5022","6569f4f7d5d541a2a1bc5022_20240207","","","","1","5","337",""
"1023","0","html-button-response","32","1503169","0.0-32.0","6569f4f7d5d541a2a1bc5022","6569f4f7d5d541a2a1bc5022_20240207","","","","1","6","1971",""
"2760","0","html-button-response","33","1506437","0.0-33.0","6569f4f7d5d541a2a1bc5022","6569f4f7d5d541a2a1bc5022_20240207","","","","7","3","1644",""
"1765","0","html-button-response","34","1508704","0.0-34.0","6569f4f7d5d541a2a1bc5022","6569f4f7d5d541a2a1bc5022_20240207","","","","1","6","1920",""
"1485","0","html-button-response","35","1510692","0.0-35.0","6569f4f7d5d541a2a1bc5022","6569f4f7d5d541a2a1bc5022_20240207","","","","7","5","1208",""
"2530","0","html-button-response","36","1513725","0.0-36.0","6569f4f7d5d541a2a1bc5022","6569f4f7d5d541a2a1bc5022_20240207","","","","4","6","1844",""
"7713","0","html-button-response","37","1521940","0.0-37.0","6569f4f7d5d541a2a1bc5022","6569f4f7d5d541a2a1bc5022_20240207","","","","6","9","1541",""
"1300","0","html-button-response","38","1523744","0.0-38.0","6569f4f7d5d541a2a1bc5022","6569f4f7d5d541a2a1bc5022_20240207","","","","5","9","1001",""
"4796","0","html-button-response","39","1529046","0.0-39.0","6569f4f7d5d541a2a1bc5022","6569f4f7d5d541a2a1bc5022_20240207","","","","5","1","1805",""
"1957","0","html-button-response","40","1531510","0.0-40.0","6569f4f7d5d541a2a1bc5022","6569f4f7d5d541a2a1bc5022_20240207","","","","5","1","163",""
"1776","0","html-button-response","41","1533795","0.0-41.0","6569f4f7d5d541a2a1bc5022","6569f4f7d5d541a2a1bc5022_20240207","","","","3","2","194",""
"1141","0","html-button-response","42","1535441","0.0-42.0","6569f4f7d5d541a2a1bc5022","6569f4f7d5d541a2a1bc5022_20240207","","","","6","4","254",""
"1769","0","html-button-response","43","1537715","0.0-43.0","6569f4f7d5d541a2a1bc5022","6569f4f7d5d541a2a1bc5022_20240207","","","","4","5","447",""
"5566","0","html-button-response","44","1543787","0.0-44.0","6569f4f7d5d541a2a1bc5022","6569f4f7d5d541a2a1bc5022_20240207","","","","4","1","1103",""
"7483","0","html-button-response","45","1551780","0.0-45.0","6569f4f7d5d541a2a1bc5022","6569f4f7d5d541a2a1bc5022_20240207","","","","6","4","2134",""
"3517","0","html-button-response","46","1555805","0.0-46.0","6569f4f7d5d541a2a1bc5022","6569f4f7d5d541a2a1bc5022_20240207","","","","6","5","833",""
"2167","0","html-button-response","47","1558477","0.0-47.0","6569f4f7d5d541a2a1bc5022","6569f4f7d5d541a2a1bc5022_20240207","","","","5","4","1358",""
"3005","0","html-button-response","48","1561986","0.0-48.0","6569f4f7d5d541a2a1bc5022","6569f4f7d5d541a2a1bc5022_20240207","","","","6","4","1841",""
"1996","0","html-button-response","49","1564489","0.0-49.0","6569f4f7d5d541a2a1bc5022","6569f4f7d5d541a2a1bc5022_20240207","","","","7","5","1709",""
"4329","0","html-button-response","50","1569322","0.0-50.0","6569f4f7d5d541a2a1bc5022","6569f4f7d5d541a2a1bc5022_20240207","","","","8","4","759",""
"1855","0","html-button-response","51","1571679","0.0-51.0","6569f4f7d5d541a2a1bc5022","6569f4f7d5d541a2a1bc5022_20240207","","","","7","6","470",""
"4459","0","html-button-response","52","1576643","0.0-52.0","6569f4f7d5d541a2a1bc5022","6569f4f7d5d541a2a1bc5022_20240207","","","","4","2","35",""
"1445","0","html-button-response","53","1578590","0.0-53.0","6569f4f7d5d541a2a1bc5022","6569f4f7d5d541a2a1bc5022_20240207","","","","6","6","79",""
"908","0","html-button-response","54","1579999","0.0-54.0","6569f4f7d5d541a2a1bc5022","6569f4f7d5d541a2a1bc5022_20240207","","","","3","7","1450",""
"1478","0","html-button-response","55","1581980","0.0-55.0","6569f4f7d5d541a2a1bc5022","6569f4f7d5d541a2a1bc5022_20240207","","","","9","5","1037",""
"1728","0","html-button-response","56","1584210","0.0-56.0","6569f4f7d5d541a2a1bc5022","6569f4f7d5d541a2a1bc5022_20240207","","","","5","4","1724",""
"1783","0","html-button-response","57","1586496","0.0-57.0","6569f4f7d5d541a2a1bc5022","6569f4f7d5d541a2a1bc5022_20240207","","","","8","4","812",""
"2895","0","html-button-response","58","1589897","0.0-58.0","6569f4f7d5d541a2a1bc5022","6569f4f7d5d541a2a1bc5022_20240207","","","","8","5","1579",""
"1990","0","html-button-response","59","1592410","0.0-59.0","6569f4f7d5d541a2a1bc5022","6569f4f7d5d541a2a1bc5022_20240207","","","","7","4","972",""
"4288","0","html-button-response","60","1597201","0.0-60.0","6569f4f7d5d541a2a1bc5022","6569f4f7d5d541a2a1bc5022_20240207","","","","6","6","978",""
"66868","0","html-button-response","61","1664575","0.0-61.0","6569f4f7d5d541a2a1bc5022","6569f4f7d5d541a2a1bc5022_20240207","","","","1","5","811",""
"1646","0","html-button-response","62","1666724","0.0-62.0","6569f4f7d5d541a2a1bc5022","6569f4f7d5d541a2a1bc5022_20240207","","","","8","5","127",""
"1451","0","html-button-response","63","1668678","0.0-63.0","6569f4f7d5d541a2a1bc5022","6569f4f7d5d541a2a1bc5022_20240207","","","","6","4","956",""
"1280","0","html-button-response","64","1670477","0.0-64.0","6569f4f7d5d541a2a1bc5022","6569f4f7d5d541a2a1bc5022_20240207","","","","7","4","1085",""
"1532","0","html-button-response","65","1672511","0.0-65.0","6569f4f7d5d541a2a1bc5022","6569f4f7d5d541a2a1bc5022_20240207","","","","7","7","1730",""
"2649","0","html-button-response","66","1675668","0.0-66.0","6569f4f7d5d541a2a1bc5022","6569f4f7d5d541a2a1bc5022_20240207","","","","6","6","7",""
"2988","0","html-button-response","67","1679158","0.0-67.0","6569f4f7d5d541a2a1bc5022","6569f4f7d5d541a2a1bc5022_20240207","","","","7","5","389",""
"1617","0","html-button-response","68","1681278","0.0-68.0","6569f4f7d5d541a2a1bc5022","6569f4f7d5d541a2a1bc5022_20240207","","","","7","2","1508",""
"1680","0","html-button-response","69","1683461","0.0-69.0","6569f4f7d5d541a2a1bc5022","6569f4f7d5d541a2a1bc5022_20240207","","","","8","7","1264",""
"1587","0","html-button-response","70","1685553","0.0-70.0","6569f4f7d5d541a2a1bc5022","6569f4f7d5d541a2a1bc5022_20240207","","","","7","8","970",""
"6155","0","html-button-response","71","1692210","0.0-71.0","6569f4f7d5d541a2a1bc5022","6569f4f7d5d541a2a1bc5022_20240207","","","","7","6","289",""
"1198","0","html-button-response","72","1693912","0.0-72.0","6569f4f7d5d541a2a1bc5022","6569f4f7d5d541a2a1bc5022_20240207","","","","1","5","321",""
"1902","0","html-button-response","73","1696317","0.0-73.0","6569f4f7d5d541a2a1bc5022","6569f4f7d5d541a2a1bc5022_20240207","","","","8","4","536",""
"1564","0","html-button-response","74","1698383","0.0-74.0","6569f4f7d5d541a2a1bc5022","6569f4f7d5d541a2a1bc5022_20240207","","","","8","5","683",""
"6181","0","html-button-response","75","1705071","0.0-75.0","6569f4f7d5d541a2a1bc5022","6569f4f7d5d541a2a1bc5022_20240207","","","","7","5","275",""
"1037","0","html-button-response","76","1706611","0.0-76.0","6569f4f7d5d541a2a1bc5022","6569f4f7d5d541a2a1bc5022_20240207","","","","9","3","1397",""
"943","0","html-button-response","77","1708057","0.0-77.0","6569f4f7d5d541a2a1bc5022","6569f4f7d5d541a2a1bc5022_20240207","","","","8","5","1816",""
"1225","0","html-button-response","78","1709784","0.0-78.0","6569f4f7d5d541a2a1bc5022","6569f4f7d5d541a2a1bc5022_20240207","","","","1","7","752",""
"1867","0","html-button-response","79","1712153","0.0-79.0","6569f4f7d5d541a2a1bc5022","6569f4f7d5d541a2a1bc5022_20240207","","","","4","2","1752",""
"1399","0","html-button-response","80","1714055","0.0-80.0","6569f4f7d5d541a2a1bc5022","6569f4f7d5d541a2a1bc5022_20240207","","","","8","6","1186",""
"1798","0","html-button-response","81","1716356","0.0-81.0","6569f4f7d5d541a2a1bc5022","6569f4f7d5d541a2a1bc5022_20240207","","","","8","4","1564",""
"6069","0","html-button-response","82","1722930","0.0-82.0","6569f4f7d5d541a2a1bc5022","6569f4f7d5d541a2a1bc5022_20240207","","","","8","7","1326",""
"1846","0","html-button-response","83","1725280","0.0-83.0","6569f4f7d5d541a2a1bc5022","6569f4f7d5d541a2a1bc5022_20240207","","","","4","5","1996",""
"3983","0","html-button-response","84","1729766","0.0-84.0","6569f4f7d5d541a2a1bc5022","6569f4f7d5d541a2a1bc5022_20240207","","","","1","4","897",""
"4349","0","html-button-response","85","1734617","0.0-85.0","6569f4f7d5d541a2a1bc5022","6569f4f7d5d541a2a1bc5022_20240207","","","","8","5","590",""
"4724","0","html-button-response","86","1739844","0.0-86.0","6569f4f7d5d541a2a1bc5022","6569f4f7d5d541a2a1bc5022_20240207","","","","5","1","557",""
"1852","0","html-button-response","87","1742199","0.0-87.0","6569f4f7d5d541a2a1bc5022","6569f4f7d5d541a2a1bc5022_20240207","","","","5","2","616",""
"1370","0","html-button-response","88","1744071","0.0-88.0","6569f4f7d5d541a2a1bc5022","6569f4f7d5d541a2a1bc5022_20240207","","","","8","5","1909",""
"1476","0","html-button-response","89","1746050","0.0-89.0","6569f4f7d5d541a2a1bc5022","6569f4f7d5d541a2a1bc5022_20240207","","","","5","5","593",""
"1322","0","html-button-response","90","1747877","0.0-90.0","6569f4f7d5d541a2a1bc5022","6569f4f7d5d541a2a1bc5022_20240207","","","","1","6","1038",""
"1880","0","html-button-response","91","1750261","0.0-91.0","6569f4f7d5d541a2a1bc5022","6569f4f7d5d541a2a1bc5022_20240207","","","","3","4","1463",""
"1647","0","html-button-response","92","1752411","0.0-92.0","6569f4f7d5d541a2a1bc5022","6569f4f7d5d541a2a1bc5022_20240207","","","","6","8","1190",""
"2086","0","html-button-response","93","1755011","0.0-93.0","6569f4f7d5d541a2a1bc5022","6569f4f7d5d541a2a1bc5022_20240207","","","","5","4","659",""
"1675","0","html-button-response","94","1757188","0.0-94.0","6569f4f7d5d541a2a1bc5022","6569f4f7d5d541a2a1bc5022_20240207","","","","7","6","1734",""
"1254","0","html-button-response","95","1758944","0.0-95.0","6569f4f7d5d541a2a1bc5022","6569f4f7d5d541a2a1bc5022_20240207","","","","4","2","2084",""
"2123","0","html-button-response","96","1761571","0.0-96.0","6569f4f7d5d541a2a1bc5022","6569f4f7d5d541a2a1bc5022_20240207","","","","5","3","382",""
"2964","0","html-button-response","97","1765038","0.0-97.0","6569f4f7d5d541a2a1bc5022","6569f4f7d5d541a2a1bc5022_20240207","","","","6","6","1817",""
"2270","0","html-button-response","98","1767810","0.0-98.0","6569f4f7d5d541a2a1bc5022","6569f4f7d5d541a2a1bc5022_20240207","","","","6","5","281",""
"2167","0","html-button-response","99","1770482","0.0-99.0","6569f4f7d5d541a2a1bc5022","6569f4f7d5d541a2a1bc5022_20240207","","","","8","7","1262",""
"5072","0","html-button-response","100","1776060","0.0-100.0","6569f4f7d5d541a2a1bc5022","6569f4f7d5d541a2a1bc5022_20240207","","","","6","5","1811",""
"3100","0","html-button-response","101","1779666","0.0-101.0","6569f4f7d5d541a2a1bc5022","6569f4f7d5d541a2a1bc5022_20240207","","","","7","5","1693",""
"3740","0","html-button-response","102","1783909","0.0-102.0","6569f4f7d5d541a2a1bc5022","6569f4f7d5d541a2a1bc5022_20240207","","","","7","3","1088",""
"1923","0","html-button-response","103","1786337","0.0-103.0","6569f4f7d5d541a2a1bc5022","6569f4f7d5d541a2a1bc5022_20240207","","","","6","5","1043",""
"2210","0","html-button-response","104","1789051","0.0-104.0","6569f4f7d5d541a2a1bc5022","6569f4f7d5d541a2a1bc5022_20240207","","","","7","5","1952",""
"2585","0","html-button-response","105","1792142","0.0-105.0","6569f4f7d5d541a2a1bc5022","6569f4f7d5d541a2a1bc5022_20240207","","","","8","1","547",""
"2332","0","html-button-response","106","1795010","0.0-106.0","6569f4f7d5d541a2a1bc5022","6569f4f7d5d541a2a1bc5022_20240207","","","","7","4","599",""
"2691","0","html-button-response","107","1798209","0.0-107.0","6569f4f7d5d541a2a1bc5022","6569f4f7d5d541a2a1bc5022_20240207","","","","7","3","1944",""
"3178","0","html-button-response","108","1801889","0.0-108.0","6569f4f7d5d541a2a1bc5022","6569f4f7d5d541a2a1bc5022_20240207","","","","8","4","1319",""
"3163","0","html-button-response","109","1805556","0.0-109.0","6569f4f7d5d541a2a1bc5022","6569f4f7d5d541a2a1bc5022_20240207","","","","8","5","1065",""
"1986","0","html-button-response","110","1808047","0.0-110.0","6569f4f7d5d541a2a1bc5022","6569f4f7d5d541a2a1bc5022_20240207","","","","7","5","478",""
"2308","0","html-button-response","111","1810859","0.0-111.0","6569f4f7d5d541a2a1bc5022","6569f4f7d5d541a2a1bc5022_20240207","","","","6","4","1104",""
"2865","0","html-button-response","112","1814227","0.0-112.0","6569f4f7d5d541a2a1bc5022","6569f4f7d5d541a2a1bc5022_20240207","","","","7","4","1360",""
"1739","0","html-button-response","113","1816497","0.0-113.0","6569f4f7d5d541a2a1bc5022","6569f4f7d5d541a2a1bc5022_20240207","","","","8","7","528",""
"2297","0","html-button-response","114","1819298","0.0-114.0","6569f4f7d5d541a2a1bc5022","6569f4f7d5d541a2a1bc5022_20240207","","","","7","6","291",""
"1817","0","html-button-response","115","1821619","0.0-115.0","6569f4f7d5d541a2a1bc5022","6569f4f7d5d541a2a1bc5022_20240207","","","","6","6","2125",""
"2486","0","html-button-response","116","1824611","0.0-116.0","6569f4f7d5d541a2a1bc5022","6569f4f7d5d541a2a1bc5022_20240207","","","","8","5","1394",""
"1452","0","html-button-response","117","1826565","0.0-117.0","6569f4f7d5d541a2a1bc5022","6569f4f7d5d541a2a1bc5022_20240207","","","","5","5","2184",""
"1978","0","html-button-response","118","1829050","0.0-118.0","6569f4f7d5d541a2a1bc5022","6569f4f7d5d541a2a1bc5022_20240207","","","","6","4","191",""
"1530","0","html-button-response","119","1831086","0.0-119.0","6569f4f7d5d541a2a1bc5022","6569f4f7d5d541a2a1bc5022_20240207","","","","8","6","1722",""
"2113","0","html-button-response","120","1833704","0.0-120.0","6569f4f7d5d541a2a1bc5022","6569f4f7d5d541a2a1bc5022_20240207","","","","7","4","867",""
"2767","0","html-button-response","121","1836974","0.0-121.0","6569f4f7d5d541a2a1bc5022","6569f4f7d5d541a2a1bc5022_20240207","","","","5","6","2105",""
"2303","0","html-button-response","122","1839779","0.0-122.0","6569f4f7d5d541a2a1bc5022","6569f4f7d5d541a2a1bc5022_20240207","","","","7","7","2151",""
"2089","0","html-button-response","123","1842372","0.0-123.0","6569f4f7d5d541a2a1bc5022","6569f4f7d5d541a2a1bc5022_20240207","","","","7","4","1591",""
"2479","0","html-button-response","124","1845370","0.0-124.0","6569f4f7d5d541a2a1bc5022","6569f4f7d5d541a2a1bc5022_20240207","","","","8","4","1466",""
"2319","0","html-button-response","125","1848193","0.0-125.0","6569f4f7d5d541a2a1bc5022","6569f4f7d5d541a2a1bc5022_20240207","","","","8","3","2037",""
"2814","0","html-button-response","126","1851510","0.0-126.0","6569f4f7d5d541a2a1bc5022","6569f4f7d5d541a2a1bc5022_20240207","","","","5","4","943",""
"1875","0","html-button-response","127","1853892","0.0-127.0","6569f4f7d5d541a2a1bc5022","6569f4f7d5d541a2a1bc5022_20240207","","","","7","4","1101",""
"1578","0","html-button-response","128","1855976","0.0-128.0","6569f4f7d5d541a2a1bc5022","6569f4f7d5d541a2a1bc5022_20240207","","","","6","3","1254",""
"1746","0","html-button-response","129","1858225","0.0-129.0","6569f4f7d5d541a2a1bc5022","6569f4f7d5d541a2a1bc5022_20240207","","","","7","3","1869",""
"11371","0","html-button-response","130","1870099","0.0-130.0","6569f4f7d5d541a2a1bc5022","6569f4f7d5d541a2a1bc5022_20240207","","","","8","6","906",""
"3145","0","html-button-response","131","1873749","0.0-131.0","6569f4f7d5d541a2a1bc5022","6569f4f7d5d541a2a1bc5022_20240207","","","","2","5","1015",""
"2263","0","html-button-response","132","1876514","0.0-132.0","6569f4f7d5d541a2a1bc5022","6569f4f7d5d541a2a1bc5022_20240207","","","","7","3","75",""
"25957","0","html-button-response","133","1902975","0.0-133.0","6569f4f7d5d541a2a1bc5022","6569f4f7d5d541a2a1bc5022_20240207","","","","3","5","196",""
"1834","0","html-button-response","134","1905312","0.0-134.0","6569f4f7d5d541a2a1bc5022","6569f4f7d5d541a2a1bc5022_20240207","","","","7","4","1989",""
"1603","0","html-button-response","135","1907437","0.0-135.0","6569f4f7d5d541a2a1bc5022","6569f4f7d5d541a2a1bc5022_20240207","","","","8","5","814",""
"2759","0","html-button-response","136","1910698","0.0-136.0","6569f4f7d5d541a2a1bc5022","6569f4f7d5d541a2a1bc5022_20240207","","","","7","6","49",""
"2510","0","html-button-response","137","1913715","0.0-137.0","6569f4f7d5d541a2a1bc5022","6569f4f7d5d541a2a1bc5022_20240207","","","","6","3","1062",""
"4448","0","html-button-response","138","1918670","0.0-138.0","6569f4f7d5d541a2a1bc5022","6569f4f7d5d541a2a1bc5022_20240207","","","","8","6","925",""
"2840","0","html-button-response","139","1922016","0.0-139.0","6569f4f7d5d541a2a1bc5022","6569f4f7d5d541a2a1bc5022_20240207","","","","6","5","297",""
"2128","0","html-button-response","140","1924671","0.0-140.0","6569f4f7d5d541a2a1bc5022","6569f4f7d5d541a2a1bc5022_20240207","","","","6","5","775",""
"1793","0","html-button-response","141","1926970","0.0-141.0","6569f4f7d5d541a2a1bc5022","6569f4f7d5d541a2a1bc5022_20240207","","","","7","3","2162",""
"1349","0","html-button-response","142","1928823","0.0-142.0","6569f4f7d5d541a2a1bc5022","6569f4f7d5d541a2a1bc5022_20240207","","","","6","6","1481",""
"1412","0","html-button-response","143","1930738","0.0-143.0","6569f4f7d5d541a2a1bc5022","6569f4f7d5d541a2a1bc5022_20240207","","","","6","3","1173",""
"2421","0","html-button-response","144","1933663","0.0-144.0","6569f4f7d5d541a2a1bc5022","6569f4f7d5d541a2a1bc5022_20240207","","","","8","5","288",""
"2928","0","html-button-response","145","1937113","0.0-145.0","6569f4f7d5d541a2a1bc5022","6569f4f7d5d541a2a1bc5022_20240207","","","","7","3","287",""
"1650","0","html-button-response","146","1939266","0.0-146.0","6569f4f7d5d541a2a1bc5022","6569f4f7d5d541a2a1bc5022_20240207","","","","7","6","785",""
"1956","0","html-button-response","147","1941727","0.0-147.0","6569f4f7d5d541a2a1bc5022","6569f4f7d5d541a2a1bc5022_20240207","","","","8","3","333",""
"8891","0","html-button-response","148","1951123","0.0-148.0","6569f4f7d5d541a2a1bc5022","6569f4f7d5d541a2a1bc5022_20240207","","","","8","5","786",""
"3015","0","html-button-response","149","1954641","0.0-149.0","6569f4f7d5d541a2a1bc5022","6569f4f7d5d541a2a1bc5022_20240207","","","","8","4","1862",""
"1700","0","html-button-response","150","1956848","0.0-150.0","6569f4f7d5d541a2a1bc5022","6569f4f7d5d541a2a1bc5022_20240207","","","","7","4","664",""
"3067","0","html-button-response","151","1960422","0.0-151.0","6569f4f7d5d541a2a1bc5022","6569f4f7d5d541a2a1bc5022_20240207","","","","8","4","1835",""
"4586","0","html-button-response","152","1965511","0.0-152.0","6569f4f7d5d541a2a1bc5022","6569f4f7d5d541a2a1bc5022_20240207","","","","6","5","2142",""
"2797","0","html-button-response","153","1968811","0.0-153.0","6569f4f7d5d541a2a1bc5022","6569f4f7d5d541a2a1bc5022_20240207","","","","8","4","2095",""
"26241","0","html-button-response","154","1995557","0.0-154.0","6569f4f7d5d541a2a1bc5022","6569f4f7d5d541a2a1bc5022_20240207","","","","9","3","725",""
"1565","0","html-button-response","155","1997628","0.0-155.0","6569f4f7d5d541a2a1bc5022","6569f4f7d5d541a2a1bc5022_20240207","","","","6","5","1138",""
"5049","0","html-button-response","156","2003183","0.0-156.0","6569f4f7d5d541a2a1bc5022","6569f4f7d5d541a2a1bc5022_20240207","","","","8","4","1491",""
"6987","0","html-button-response","157","2010675","0.0-157.0","6569f4f7d5d541a2a1bc5022","6569f4f7d5d541a2a1bc5022_20240207","","","","9","5","1676",""
"1371","0","html-button-response","158","2012548","0.0-158.0","6569f4f7d5d541a2a1bc5022","6569f4f7d5d541a2a1bc5022_20240207","","","","5","5","873",""
"5714","0","html-button-response","159","2018769","0.0-159.0","6569f4f7d5d541a2a1bc5022","6569f4f7d5d541a2a1bc5022_20240207","","","","7","4","1341",""
"1909","0","html-button-response","160","2021182","0.0-160.0","6569f4f7d5d541a2a1bc5022","6569f4f7d5d541a2a1bc5022_20240207","","","","6","7","1114",""
"1426","0","html-button-response","161","2023111","0.0-161.0","6569f4f7d5d541a2a1bc5022","6569f4f7d5d541a2a1bc5022_20240207","","","","8","4","294",""
"2022","0","html-button-response","162","2025638","0.0-162.0","6569f4f7d5d541a2a1bc5022","6569f4f7d5d541a2a1bc5022_20240207","","","","6","5","14",""
"3407","0","html-button-response","163","2029550","0.0-163.0","6569f4f7d5d541a2a1bc5022","6569f4f7d5d541a2a1bc5022_20240207","","","","8","6","2083",""
"1982","0","html-button-response","164","2032039","0.0-164.0","6569f4f7d5d541a2a1bc5022","6569f4f7d5d541a2a1bc5022_20240207","","","","7","4","2169",""
"2293","0","html-button-response","165","2034837","0.0-165.0","6569f4f7d5d541a2a1bc5022","6569f4f7d5d541a2a1bc5022_20240207","","","","7","5","1781",""
"1700","0","html-button-response","166","2037041","0.0-166.0","6569f4f7d5d541a2a1bc5022","6569f4f7d5d541a2a1bc5022_20240207","","","","8","4","1228",""
"5142","0","html-button-response","167","2042689","0.0-167.0","6569f4f7d5d541a2a1bc5022","6569f4f7d5d541a2a1bc5022_20240207","","","","7","5","1863",""
"2227","0","html-button-response","168","2045423","0.0-168.0","6569f4f7d5d541a2a1bc5022","6569f4f7d5d541a2a1bc5022_20240207","","","","7","5","967",""
"1986","0","html-button-response","169","2047915","0.0-169.0","6569f4f7d5d541a2a1bc5022","6569f4f7d5d541a2a1bc5022_20240207","","","","6","6","538",""
"7209","0","html-button-response","170","2055630","0.0-170.0","6569f4f7d5d541a2a1bc5022","6569f4f7d5d541a2a1bc5022_20240207","","","","5","4","524",""
"3715","0","html-button-response","171","2059848","0.0-171.0","6569f4f7d5d541a2a1bc5022","6569f4f7d5d541a2a1bc5022_20240207","","","","8","5","1859",""
"3158","0","html-button-response","172","2063507","0.0-172.0","6569f4f7d5d541a2a1bc5022","6569f4f7d5d541a2a1bc5022_20240207","","","","6","5","1666",""
"3455","0","html-button-response","173","2067468","0.0-173.0","6569f4f7d5d541a2a1bc5022","6569f4f7d5d541a2a1bc5022_20240207","","","","6","5","618",""
"2549","0","html-button-response","174","2070520","0.0-174.0","6569f4f7d5d541a2a1bc5022","6569f4f7d5d541a2a1bc5022_20240207","","","","5","4","2189",""
"2064","0","html-button-response","175","2073088","0.0-175.0","6569f4f7d5d541a2a1bc5022","6569f4f7d5d541a2a1bc5022_20240207","","","","7","4","1304",""
"2093","0","html-button-response","176","2075688","0.0-176.0","6569f4f7d5d541a2a1bc5022","6569f4f7d5d541a2a1bc5022_20240207","","","","7","5","1452",""
"3575","0","html-button-response","177","2079766","0.0-177.0","6569f4f7d5d541a2a1bc5022","6569f4f7d5d541a2a1bc5022_20240207","","","","6","5","105",""
"14631","0","html-button-response","178","2094903","0.0-178.0","6569f4f7d5d541a2a1bc5022","6569f4f7d5d541a2a1bc5022_20240207","","","","5","5","911",""
"2361","0","html-button-response","179","2097767","0.0-179.0","6569f4f7d5d541a2a1bc5022","6569f4f7d5d541a2a1bc5022_20240207","","","","6","5","649",""
"2389","0","html-button-response","180","2100669","0.0-180.0","6569f4f7d5d541a2a1bc5022","6569f4f7d5d541a2a1bc5022_20240207","","","","3","5","639",""
"7374","0","html-button-response","181","2108548","0.0-181.0","6569f4f7d5d541a2a1bc5022","6569f4f7d5d541a2a1bc5022_20240207","","","","6","5","428",""
"3197","0","html-button-response","182","2112252","0.0-182.0","6569f4f7d5d541a2a1bc5022","6569f4f7d5d541a2a1bc5022_20240207","","","","6","4","1533",""
"3926","0","html-button-response","183","2116684","0.0-183.0","6569f4f7d5d541a2a1bc5022","6569f4f7d5d541a2a1bc5022_20240207","","","","7","6","1079",""
"2013","0","html-button-response","184","2119203","0.0-184.0","6569f4f7d5d541a2a1bc5022","6569f4f7d5d541a2a1bc5022_20240207","","","","7","5","1713",""
"2584","0","html-button-response","185","2122291","0.0-185.0","6569f4f7d5d541a2a1bc5022","6569f4f7d5d541a2a1bc5022_20240207","","","","7","4","2094",""
"2021","0","html-button-response","186","2124844","0.0-186.0","6569f4f7d5d541a2a1bc5022","6569f4f7d5d541a2a1bc5022_20240207","","","","6","5","44",""
"3013","0","html-button-response","187","2128361","0.0-187.0","6569f4f7d5d541a2a1bc5022","6569f4f7d5d541a2a1bc5022_20240207","","","","7","5","2023",""
"4230","0","html-button-response","188","2133096","0.0-188.0","6569f4f7d5d541a2a1bc5022","6569f4f7d5d541a2a1bc5022_20240207","","","","7","5","2075",""
"5344","0","html-button-response","189","2138944","0.0-189.0","6569f4f7d5d541a2a1bc5022","6569f4f7d5d541a2a1bc5022_20240207","","","","8","5","866",""
"8522","0","html-button-response","190","2147971","0.0-190.0","6569f4f7d5d541a2a1bc5022","6569f4f7d5d541a2a1bc5022_20240207","","","","6","5","1572",""
"24885","0","html-button-response","191","2173358","0.0-191.0","6569f4f7d5d541a2a1bc5022","6569f4f7d5d541a2a1bc5022_20240207","","","","6","4","181",""
"1768","0","html-button-response","192","2175633","0.0-192.0","6569f4f7d5d541a2a1bc5022","6569f4f7d5d541a2a1bc5022_20240207","","","","8","3","1411",""
"1596","0","html-button-response","193","2177757","0.0-193.0","6569f4f7d5d541a2a1bc5022","6569f4f7d5d541a2a1bc5022_20240207","","","","6","5","518",""
"1770","0","html-button-response","194","2180029","0.0-194.0","6569f4f7d5d541a2a1bc5022","6569f4f7d5d541a2a1bc5022_20240207","","","","4","5","1060",""
"1547","0","html-button-response","195","2182083","0.0-195.0","6569f4f7d5d541a2a1bc5022","6569f4f7d5d541a2a1bc5022_20240207","","","","8","5","1595",""
"2925","0","html-button-response","196","2185515","0.0-196.0","6569f4f7d5d541a2a1bc5022","6569f4f7d5d541a2a1bc5022_20240207","","","","7","5","1233",""
"2629","0","html-button-response","197","2188648","0.0-197.0","6569f4f7d5d541a2a1bc5022","6569f4f7d5d541a2a1bc5022_20240207","","","","7","4","1473",""
"2944","0","html-button-response","198","2192099","0.0-198.0","6569f4f7d5d541a2a1bc5022","6569f4f7d5d541a2a1bc5022_20240207","","","","8","5","1366",""
"3089","0","html-button-response","199","2195721","0.0-199.0","6569f4f7d5d541a2a1bc5022","6569f4f7d5d541a2a1bc5022_20240207","","","","8","5","210",""
"1867","0","html-button-response","200","2198091","0.0-200.0","6569f4f7d5d541a2a1bc5022","6569f4f7d5d541a2a1bc5022_20240207","","","","7","5","905",""
"1218","0","html-button-response","201","2199812","0.0-201.0","6569f4f7d5d541a2a1bc5022","6569f4f7d5d541a2a1bc5022_20240207","","","","1","5","902",""
"1465","0","html-button-response","202","2201779","0.0-202.0","6569f4f7d5d541a2a1bc5022","6569f4f7d5d541a2a1bc5022_20240207","","","","7","5","2080",""
"2258","0","html-button-response","203","2204543","0.0-203.0","6569f4f7d5d541a2a1bc5022","6569f4f7d5d541a2a1bc5022_20240207","","","","6","4","202",""
"3062","0","html-button-response","204","2208108","0.0-204.0","6569f4f7d5d541a2a1bc5022","6569f4f7d5d541a2a1bc5022_20240207","","","","7","4","264",""
"2040","0","html-button-response","205","2210651","0.0-205.0","6569f4f7d5d541a2a1bc5022","6569f4f7d5d541a2a1bc5022_20240207","","","","7","5","1143",""
"2112","0","html-button-response","206","2213269","0.0-206.0","6569f4f7d5d541a2a1bc5022","6569f4f7d5d541a2a1bc5022_20240207","","","","7","4","482",""
"2770","0","html-button-response","207","2216547","0.0-207.0","6569f4f7d5d541a2a1bc5022","6569f4f7d5d541a2a1bc5022_20240207","","","","6","5","378",""
"2224","0","html-button-response","208","2219277","0.0-208.0","6569f4f7d5d541a2a1bc5022","6569f4f7d5d541a2a1bc5022_20240207","","","","6","5","882",""
"2130","0","html-button-response","209","2221911","0.0-209.0","6569f4f7d5d541a2a1bc5022","6569f4f7d5d541a2a1bc5022_20240207","","","","5","6","334",""
"2013","0","html-button-response","210","2224428","0.0-210.0","6569f4f7d5d541a2a1bc5022","6569f4f7d5d541a2a1bc5022_20240207","","","","7","4","799",""
"2338","0","html-button-response","211","2227272","0.0-211.0","6569f4f7d5d541a2a1bc5022","6569f4f7d5d541a2a1bc5022_20240207","","","","6","3","1531",""
"863","0","html-button-response","212","2228637","0.0-212.0","6569f4f7d5d541a2a1bc5022","6569f4f7d5d541a2a1bc5022_20240207","","","","2","6","755",""
"3464","0","html-button-response","213","2232605","0.0-213.0","6569f4f7d5d541a2a1bc5022","6569f4f7d5d541a2a1bc5022_20240207","","","","7","4","1151",""
"1811","0","html-button-response","214","2234919","0.0-214.0","6569f4f7d5d541a2a1bc5022","6569f4f7d5d541a2a1bc5022_20240207","","","","7","4","1156",""
"1711","0","html-button-response","215","2237134","0.0-215.0","6569f4f7d5d541a2a1bc5022","6569f4f7d5d541a2a1bc5022_20240207","","","","7","7","492",""
"1614","0","html-button-response","216","2239275","0.0-216.0","6569f4f7d5d541a2a1bc5022","6569f4f7d5d541a2a1bc5022_20240207","","","","5","5","605",""
"2200","0","html-button-response","217","2241981","0.0-217.0","6569f4f7d5d541a2a1bc5022","6569f4f7d5d541a2a1bc5022_20240207","","","","8","7","1300",""
"5579","0","html-button-response","218","2248066","0.0-218.0","6569f4f7d5d541a2a1bc5022","6569f4f7d5d541a2a1bc5022_20240207","","","","8","5","368",""
"1961","0","html-button-response","219","2250541","0.0-219.0","6569f4f7d5d541a2a1bc5022","6569f4f7d5d541a2a1bc5022_20240207","","","","5","4","1160",""
"1811","0","html-button-response","220","2252857","0.0-220.0","6569f4f7d5d541a2a1bc5022","6569f4f7d5d541a2a1bc5022_20240207","","","","8","4","1671",""
"2421","0","html-button-response","221","2255781","0.0-221.0","6569f4f7d5d541a2a1bc5022","6569f4f7d5d541a2a1bc5022_20240207","","","","6","3","1513",""
"1697","0","html-button-response","222","2257984","0.0-222.0","6569f4f7d5d541a2a1bc5022","6569f4f7d5d541a2a1bc5022_20240207","","","","8","4","1398",""
"2485","0","html-button-response","223","2260975","0.0-223.0","6569f4f7d5d541a2a1bc5022","6569f4f7d5d541a2a1bc5022_20240207","","","","7","5","1982",""
"3141","0","html-button-response","224","2264622","0.0-224.0","6569f4f7d5d541a2a1bc5022","6569f4f7d5d541a2a1bc5022_20240207","","","","8","4","200",""
"1682","0","html-button-response","225","2266806","0.0-225.0","6569f4f7d5d541a2a1bc5022","6569f4f7d5d541a2a1bc5022_20240207","","","Thank you. You have reached the end. 
                       <br>Click the button below to reveal your compensation.
                        <br><br>","","","","2197,742,38,2002,416,841,1089,1391,1479,622,2159,193,1370,421,1828,1314,1,929,139,1639,1516,1453,1378,657,740,496,337,1971,1644,1920,1208,1844,1541,1001,1805,163,194,254,447,1103,2134,833,1358,1841,1709,759,470,35,79,1450,1037,1724,812,1579,972,978,811,127,956,1085,1730,7,389,1508,1264,970,289,321,536,683,275,1397,1816,752,1752,1186,1564,1326,1996,897,590,557,616,1909,593,1038,1463,1190,659,1734,2084,382,1817,281,1262,1811,1693,1088,1043,1952,547,599,1944,1319,1065,478,1104,1360,528,291,2125,1394,2184,191,1722,867,2105,2151,1591,1466,2037,943,1101,1254,1869,906,1015,75,196,1989,814,49,1062,925,297,775,2162,1481,1173,288,287,785,333,786,1862,664,1835,2142,2095,725,1138,1491,1676,873,1341,1114,294,14,2083,2169,1781,1228,1863,967,538,524,1859,1666,618,2189,1304,1452,105,911,649,639,428,1533,1079,1713,2094,44,2023,2075,866,1572,181,1411,518,1060,1595,1233,1473,1366,210,905,902,2080,202,264,1143,482,378,882,334,799,1531,755,1151,1156,492,605,1300,368,1160,1671,1513,1398,1982,200"
