"rt","response","trial_type","trial_index","time_elapsed","internal_node_id","part_ID","ID_DATE","screen_id","understand_correct","stimulus","arousal","valence","img_id","tested_trial_idx"
"27731","0","html-button-response","0","27734","0.0-0.0","5fb3d71c3144730009fe4a7b","5fb3d71c3144730009fe4a7b_20240207","","","","","","",""
"9266","[object Object]","survey-html-form","1","37509","0.0-1.0","5fb3d71c3144730009fe4a7b","5fb3d71c3144730009fe4a7b_20240207","prolific_id_page","","","","","",""
"40303","0","html-button-response","2","77818","0.0-2.0","5fb3d71c3144730009fe4a7b","5fb3d71c3144730009fe4a7b_20240207","","","","","","",""
"8252","0","html-button-response","3","86575","0.0-3.0-0.0","5fb3d71c3144730009fe4a7b","5fb3d71c3144730009fe4a7b_20240207","","false","","","","",""
"45889","0","html-button-response","4","135456","0.0-3.1-0.1","5fb3d71c3144730009fe4a7b","5fb3d71c3144730009fe4a7b_20240207","","true","","","","",""
"1517","0","html-button-response","5","137490","0.0-4.0","5fb3d71c3144730009fe4a7b","5fb3d71c3144730009fe4a7b_20240207","","","
<div>
Great! You will now go on to rate the faces.
<br><br>
</div>
","","","",""
"15070","0","html-button-response","6","153074","0.0-5.0","5fb3d71c3144730009fe4a7b","5fb3d71c3144730009fe4a7b_20240207","","","","8","8","1927",""
"11546","0","html-button-response","7","165132","0.0-6.0","5fb3d71c3144730009fe4a7b","5fb3d71c3144730009fe4a7b_20240207","","","","6","3","1052",""
"14124","0","html-button-response","8","179764","0.0-7.0","5fb3d71c3144730009fe4a7b","5fb3d71c3144730009fe4a7b_20240207","","","","8","4","228",""
"12030","0","html-button-response","9","192302","0.0-8.0","5fb3d71c3144730009fe4a7b","5fb3d71c3144730009fe4a7b_20240207","","","","8","8","1873",""
"15890","0","html-button-response","10","208699","0.0-9.0","5fb3d71c3144730009fe4a7b","5fb3d71c3144730009fe4a7b_20240207","","","","5","2","1391",""
"15404","0","html-button-response","11","224608","0.0-10.0","5fb3d71c3144730009fe4a7b","5fb3d71c3144730009fe4a7b_20240207","","","","6","6","1724",""
"10201","0","html-button-response","12","235312","0.0-11.0","5fb3d71c3144730009fe4a7b","5fb3d71c3144730009fe4a7b_20240207","","","","6","1","283",""
"5418","0","html-button-response","13","241244","0.0-12.0","5fb3d71c3144730009fe4a7b","5fb3d71c3144730009fe4a7b_20240207","","","","5","5","2164",""
"8426","0","html-button-response","14","250178","0.0-13.0","5fb3d71c3144730009fe4a7b","5fb3d71c3144730009fe4a7b_20240207","","","","5","3","1688",""
"7874","0","html-button-response","15","258554","0.0-14.0","5fb3d71c3144730009fe4a7b","5fb3d71c3144730009fe4a7b_20240207","","","","6","6","1444",""
"12406","0","html-button-response","16","271472","0.0-15.0","5fb3d71c3144730009fe4a7b","5fb3d71c3144730009fe4a7b_20240207","","","","6","2","727",""
"7726","0","html-button-response","17","279701","0.0-16.0","5fb3d71c3144730009fe4a7b","5fb3d71c3144730009fe4a7b_20240207","","","","7","8","862",""
"11715","0","html-button-response","18","291923","0.0-17.0","5fb3d71c3144730009fe4a7b","5fb3d71c3144730009fe4a7b_20240207","","","","4","3","726",""
"7740","0","html-button-response","19","300168","0.0-18.0","5fb3d71c3144730009fe4a7b","5fb3d71c3144730009fe4a7b_20240207","","","","4","6","1932",""
"6960","0","html-button-response","20","307640","0.0-19.0","5fb3d71c3144730009fe4a7b","5fb3d71c3144730009fe4a7b_20240207","","","","7","8","1407",""
"12028","0","html-button-response","21","320169","0.0-20.0","5fb3d71c3144730009fe4a7b","5fb3d71c3144730009fe4a7b_20240207","","","","6","5","789",""
"10120","0","html-button-response","22","330803","0.0-21.0","5fb3d71c3144730009fe4a7b","5fb3d71c3144730009fe4a7b_20240207","","","","9","9","1717",""
"19027","0","html-button-response","23","350333","0.0-22.0","5fb3d71c3144730009fe4a7b","5fb3d71c3144730009fe4a7b_20240207","","","","7","2","428",""
"5683","0","html-button-response","24","356528","0.0-23.0","5fb3d71c3144730009fe4a7b","5fb3d71c3144730009fe4a7b_20240207","","","","9","9","1016",""
"5290","0","html-button-response","25","362328","0.0-24.0","5fb3d71c3144730009fe4a7b","5fb3d71c3144730009fe4a7b_20240207","","","","5","5","1319",""
"5941","0","html-button-response","26","368772","0.0-25.0","5fb3d71c3144730009fe4a7b","5fb3d71c3144730009fe4a7b_20240207","","","","8","9","1188",""
"14454","0","html-button-response","27","383744","0.0-26.0","5fb3d71c3144730009fe4a7b","5fb3d71c3144730009fe4a7b_20240207","","","","7","5","358",""
"4367","0","html-button-response","28","388623","0.0-27.0","5fb3d71c3144730009fe4a7b","5fb3d71c3144730009fe4a7b_20240207","","","","5","5","2024",""
"16296","0","html-button-response","29","405430","0.0-28.0","5fb3d71c3144730009fe4a7b","5fb3d71c3144730009fe4a7b_20240207","","","","4","4","1597",""
"41860","0","html-button-response","30","447792","0.0-29.0","5fb3d71c3144730009fe4a7b","5fb3d71c3144730009fe4a7b_20240207","","","","6","6","1787",""
"11289","0","html-button-response","31","459588","0.0-30.0","5fb3d71c3144730009fe4a7b","5fb3d71c3144730009fe4a7b_20240207","","","","5","4","632",""
"8631","0","html-button-response","32","468722","0.0-31.0","5fb3d71c3144730009fe4a7b","5fb3d71c3144730009fe4a7b_20240207","","","","7","1","1882",""
"9443","0","html-button-response","33","478668","0.0-32.0","5fb3d71c3144730009fe4a7b","5fb3d71c3144730009fe4a7b_20240207","","","","9","4","123",""
"26043","0","html-button-response","34","505224","0.0-33.0","5fb3d71c3144730009fe4a7b","5fb3d71c3144730009fe4a7b_20240207","","","","8","7","1757",""
"11091","0","html-button-response","35","516826","0.0-34.0","5fb3d71c3144730009fe4a7b","5fb3d71c3144730009fe4a7b_20240207","","","","4","3","1806",""
"6651","0","html-button-response","36","523988","0.0-35.0","5fb3d71c3144730009fe4a7b","5fb3d71c3144730009fe4a7b_20240207","","","","3","4","1816",""
"10236","0","html-button-response","37","534732","0.0-36.0","5fb3d71c3144730009fe4a7b","5fb3d71c3144730009fe4a7b_20240207","","","","5","1","1989",""
"35944","0","html-button-response","38","571178","0.0-37.0","5fb3d71c3144730009fe4a7b","5fb3d71c3144730009fe4a7b_20240207","","","","5","1","1388",""
"7871","0","html-button-response","39","579562","0.0-38.0","5fb3d71c3144730009fe4a7b","5fb3d71c3144730009fe4a7b_20240207","","","","6","3","194",""
"7944","0","html-button-response","40","588010","0.0-39.0","5fb3d71c3144730009fe4a7b","5fb3d71c3144730009fe4a7b_20240207","","","","7","7","2098",""
"8299","0","html-button-response","41","596812","0.0-40.0","5fb3d71c3144730009fe4a7b","5fb3d71c3144730009fe4a7b_20240207","","","","9","5","381",""
"8939","0","html-button-response","42","606253","0.0-41.0","5fb3d71c3144730009fe4a7b","5fb3d71c3144730009fe4a7b_20240207","","","","7","8","1563",""
"54315","0","html-button-response","43","661076","0.0-42.0","5fb3d71c3144730009fe4a7b","5fb3d71c3144730009fe4a7b_20240207","","","","5","7","1145",""
"9838","0","html-button-response","44","671427","0.0-43.0","5fb3d71c3144730009fe4a7b","5fb3d71c3144730009fe4a7b_20240207","","","","6","3","1910",""
"7477","0","html-button-response","45","679406","0.0-44.0","5fb3d71c3144730009fe4a7b","5fb3d71c3144730009fe4a7b_20240207","","","","7","9","1223",""
"5338","0","html-button-response","46","685254","0.0-45.0","5fb3d71c3144730009fe4a7b","5fb3d71c3144730009fe4a7b_20240207","","","","6","7","1435",""
"10483","0","html-button-response","47","696244","0.0-46.0","5fb3d71c3144730009fe4a7b","5fb3d71c3144730009fe4a7b_20240207","","","","8","5","37",""
"31681","0","html-button-response","48","728428","0.0-47.0","5fb3d71c3144730009fe4a7b","5fb3d71c3144730009fe4a7b_20240207","","","","4","1","1533",""
"4307","0","html-button-response","49","733246","0.0-48.0","5fb3d71c3144730009fe4a7b","5fb3d71c3144730009fe4a7b_20240207","","","","9","5","170",""
"82404","0","html-button-response","50","816161","0.0-49.0","5fb3d71c3144730009fe4a7b","5fb3d71c3144730009fe4a7b_20240207","","","","5","4","1793",""
"8956","0","html-button-response","51","825618","0.0-50.0","5fb3d71c3144730009fe4a7b","5fb3d71c3144730009fe4a7b_20240207","","","","6","4","257",""
"7075","0","html-button-response","52","833198","0.0-51.0","5fb3d71c3144730009fe4a7b","5fb3d71c3144730009fe4a7b_20240207","","","","5","6","930",""
"4058","0","html-button-response","53","837760","0.0-52.0","5fb3d71c3144730009fe4a7b","5fb3d71c3144730009fe4a7b_20240207","","","","6","5","759",""
"6402","0","html-button-response","54","844668","0.0-53.0","5fb3d71c3144730009fe4a7b","5fb3d71c3144730009fe4a7b_20240207","","","","7","5","916",""
"12303","0","html-button-response","55","857477","0.0-54.0","5fb3d71c3144730009fe4a7b","5fb3d71c3144730009fe4a7b_20240207","","","","6","3","1963",""
"73029","0","html-button-response","56","931016","0.0-55.0","5fb3d71c3144730009fe4a7b","5fb3d71c3144730009fe4a7b_20240207","","","","4","4","127",""
"7315","0","html-button-response","57","938834","0.0-56.0","5fb3d71c3144730009fe4a7b","5fb3d71c3144730009fe4a7b_20240207","","","","9","8","1056",""
"9598","0","html-button-response","58","948936","0.0-57.0","5fb3d71c3144730009fe4a7b","5fb3d71c3144730009fe4a7b_20240207","","","","9","2","90",""
"4552","0","html-button-response","59","953994","0.0-58.0","5fb3d71c3144730009fe4a7b","5fb3d71c3144730009fe4a7b_20240207","","","","5","3","1804",""
"60759","0","html-button-response","60","1015262","0.0-59.0","5fb3d71c3144730009fe4a7b","5fb3d71c3144730009fe4a7b_20240207","","","","7","7","1733",""
"10198","0","html-button-response","61","1025964","0.0-60.0","5fb3d71c3144730009fe4a7b","5fb3d71c3144730009fe4a7b_20240207","","","","6","4","1300",""
"5069","0","html-button-response","62","1031540","0.0-61.0","5fb3d71c3144730009fe4a7b","5fb3d71c3144730009fe4a7b_20240207","","","","6","7","1423",""
"2648","0","html-button-response","63","1034696","0.0-62.0","5fb3d71c3144730009fe4a7b","5fb3d71c3144730009fe4a7b_20240207","","","","5","5","1970",""
"5157","0","html-button-response","64","1040356","0.0-63.0","5fb3d71c3144730009fe4a7b","5fb3d71c3144730009fe4a7b_20240207","","","","6","7","1601",""
"3523","0","html-button-response","65","1044394","0.0-64.0","5fb3d71c3144730009fe4a7b","5fb3d71c3144730009fe4a7b_20240207","","","","5","4","333",""
"7110","0","html-button-response","66","1052010","0.0-65.0","5fb3d71c3144730009fe4a7b","5fb3d71c3144730009fe4a7b_20240207","","","","9","5","249",""
"19092","0","html-button-response","67","1071616","0.0-66.0","5fb3d71c3144730009fe4a7b","5fb3d71c3144730009fe4a7b_20240207","","","","5","4","1921",""
"5336","0","html-button-response","68","1077454","0.0-67.0","5fb3d71c3144730009fe4a7b","5fb3d71c3144730009fe4a7b_20240207","","","","8","2","1065",""
"5640","0","html-button-response","69","1083602","0.0-68.0","5fb3d71c3144730009fe4a7b","5fb3d71c3144730009fe4a7b_20240207","","","","5","4","1261",""
"35797","0","html-button-response","70","1119902","0.0-69.0","5fb3d71c3144730009fe4a7b","5fb3d71c3144730009fe4a7b_20240207","","","","6","6","755",""
"5923","0","html-button-response","71","1126336","0.0-70.0","5fb3d71c3144730009fe4a7b","5fb3d71c3144730009fe4a7b_20240207","","","","5","3","827",""
"8538","0","html-button-response","72","1135377","0.0-71.0","5fb3d71c3144730009fe4a7b","5fb3d71c3144730009fe4a7b_20240207","","","","7","2","1248",""
"7075","0","html-button-response","73","1142954","0.0-72.0","5fb3d71c3144730009fe4a7b","5fb3d71c3144730009fe4a7b_20240207","","","","9","1","2037",""
"9913","0","html-button-response","74","1153370","0.0-73.0","5fb3d71c3144730009fe4a7b","5fb3d71c3144730009fe4a7b_20240207","","","","9","4","97",""
"7391","0","html-button-response","75","1161266","0.0-74.0","5fb3d71c3144730009fe4a7b","5fb3d71c3144730009fe4a7b_20240207","","","","9","5","111",""
"3502","0","html-button-response","76","1165279","0.0-75.0","5fb3d71c3144730009fe4a7b","5fb3d71c3144730009fe4a7b_20240207","","","","5","5","1172",""
"5427","0","html-button-response","77","1171210","0.0-76.0","5fb3d71c3144730009fe4a7b","5fb3d71c3144730009fe4a7b_20240207","","","","9","9","847",""
"6357","0","html-button-response","78","1178078","0.0-77.0","5fb3d71c3144730009fe4a7b","5fb3d71c3144730009fe4a7b_20240207","","","","6","6","1966",""
"9441","0","html-button-response","79","1188022","0.0-78.0","5fb3d71c3144730009fe4a7b","5fb3d71c3144730009fe4a7b_20240207","","","","6","6","2153",""
"4167","0","html-button-response","80","1192692","0.0-79.0","5fb3d71c3144730009fe4a7b","5fb3d71c3144730009fe4a7b_20240207","","","","5","5","1125",""
"4850","0","html-button-response","81","1198044","0.0-80.0","5fb3d71c3144730009fe4a7b","5fb3d71c3144730009fe4a7b_20240207","","","","6","7","1798",""
"8414","0","html-button-response","82","1206961","0.0-81.0","5fb3d71c3144730009fe4a7b","5fb3d71c3144730009fe4a7b_20240207","","","","5","5","841",""
"7739","0","html-button-response","83","1215202","0.0-82.0","5fb3d71c3144730009fe4a7b","5fb3d71c3144730009fe4a7b_20240207","","","","9","6","214",""
"7726","0","html-button-response","84","1223430","0.0-83.0","5fb3d71c3144730009fe4a7b","5fb3d71c3144730009fe4a7b_20240207","","","","7","9","890",""
"5977","0","html-button-response","85","1229910","0.0-84.0","5fb3d71c3144730009fe4a7b","5fb3d71c3144730009fe4a7b_20240207","","","","9","9","1730",""
"10427","0","html-button-response","86","1240845","0.0-85.0","5fb3d71c3144730009fe4a7b","5fb3d71c3144730009fe4a7b_20240207","","","","6","3","2026",""
"8390","0","html-button-response","87","1249739","0.0-86.0","5fb3d71c3144730009fe4a7b","5fb3d71c3144730009fe4a7b_20240207","","","","4","3","464",""
"15718","0","html-button-response","88","1265963","0.0-87.0","5fb3d71c3144730009fe4a7b","5fb3d71c3144730009fe4a7b_20240207","","","","4","4","1074",""
"10922","0","html-button-response","89","1277398","0.0-88.0","5fb3d71c3144730009fe4a7b","5fb3d71c3144730009fe4a7b_20240207","","","","3","5","931",""
"4710","0","html-button-response","90","1282610","0.0-89.0","5fb3d71c3144730009fe4a7b","5fb3d71c3144730009fe4a7b_20240207","","","","4","5","762",""
"8799","0","html-button-response","91","1291915","0.0-90.0","5fb3d71c3144730009fe4a7b","5fb3d71c3144730009fe4a7b_20240207","","","","6","3","64",""
"7530","0","html-button-response","92","1299957","0.0-91.0","5fb3d71c3144730009fe4a7b","5fb3d71c3144730009fe4a7b_20240207","","","","9","8","1199",""
"9008","0","html-button-response","93","1309474","0.0-92.0","5fb3d71c3144730009fe4a7b","5fb3d71c3144730009fe4a7b_20240207","","","","7","4","1949",""
"6471","0","html-button-response","94","1316450","0.0-93.0","5fb3d71c3144730009fe4a7b","5fb3d71c3144730009fe4a7b_20240207","","","","6","5","592",""
"14910","0","html-button-response","95","1331863","0.0-94.0","5fb3d71c3144730009fe4a7b","5fb3d71c3144730009fe4a7b_20240207","","","","9","7","679",""
"7215","0","html-button-response","96","1339586","0.0-95.0","5fb3d71c3144730009fe4a7b","5fb3d71c3144730009fe4a7b_20240207","","","","9","5","45",""
"11321","0","html-button-response","97","1351425","0.0-96.0","5fb3d71c3144730009fe4a7b","5fb3d71c3144730009fe4a7b_20240207","","","","8","4","587",""
"12819","0","html-button-response","98","1364751","0.0-97.0","5fb3d71c3144730009fe4a7b","5fb3d71c3144730009fe4a7b_20240207","","","","3","3","1230",""
"7787","0","html-button-response","99","1373040","0.0-98.0","5fb3d71c3144730009fe4a7b","5fb3d71c3144730009fe4a7b_20240207","","","","9","8","846",""
"8862","0","html-button-response","100","1382405","0.0-99.0","5fb3d71c3144730009fe4a7b","5fb3d71c3144730009fe4a7b_20240207","","","","3","5","1686",""
"10917","0","html-button-response","101","1393829","0.0-100.0","5fb3d71c3144730009fe4a7b","5fb3d71c3144730009fe4a7b_20240207","","","","4","3","544",""
"3362","0","html-button-response","102","1397695","0.0-101.0","5fb3d71c3144730009fe4a7b","5fb3d71c3144730009fe4a7b_20240207","","","","5","5","2180",""
"6355","0","html-button-response","103","1404552","0.0-102.0","5fb3d71c3144730009fe4a7b","5fb3d71c3144730009fe4a7b_20240207","","","","6","6","807",""
"8677","0","html-button-response","104","1413732","0.0-103.0","5fb3d71c3144730009fe4a7b","5fb3d71c3144730009fe4a7b_20240207","","","","6","7","2048",""
"8751","0","html-button-response","105","1422994","0.0-104.0","5fb3d71c3144730009fe4a7b","5fb3d71c3144730009fe4a7b_20240207","","","","6","3","76",""
"10011","0","html-button-response","106","1433511","0.0-105.0","5fb3d71c3144730009fe4a7b","5fb3d71c3144730009fe4a7b_20240207","","","","4","3","447",""
"5562","0","html-button-response","107","1439583","0.0-106.0","5fb3d71c3144730009fe4a7b","5fb3d71c3144730009fe4a7b_20240207","","","","3","5","2128",""
"6843","0","html-button-response","108","1446928","0.0-107.0","5fb3d71c3144730009fe4a7b","5fb3d71c3144730009fe4a7b_20240207","","","","3","4","711",""
"8280","0","html-button-response","109","1455719","0.0-108.0","5fb3d71c3144730009fe4a7b","5fb3d71c3144730009fe4a7b_20240207","","","","4","2","1700",""
"6929","0","html-button-response","110","1463159","0.0-109.0","5fb3d71c3144730009fe4a7b","5fb3d71c3144730009fe4a7b_20240207","","","","6","6","2123",""
"6241","0","html-button-response","111","1469911","0.0-110.0","5fb3d71c3144730009fe4a7b","5fb3d71c3144730009fe4a7b_20240207","","","","5","4","1845",""
"5065","0","html-button-response","112","1475479","0.0-111.0","5fb3d71c3144730009fe4a7b","5fb3d71c3144730009fe4a7b_20240207","","","","3","2","1039",""
"4678","0","html-button-response","113","1480667","0.0-112.0","5fb3d71c3144730009fe4a7b","5fb3d71c3144730009fe4a7b_20240207","","","","4","5","1128",""
"7579","0","html-button-response","114","1488748","0.0-113.0","5fb3d71c3144730009fe4a7b","5fb3d71c3144730009fe4a7b_20240207","","","","5","4","1000",""
"8390","0","html-button-response","115","1497649","0.0-114.0","5fb3d71c3144730009fe4a7b","5fb3d71c3144730009fe4a7b_20240207","","","","9","6","184",""
"6447","0","html-button-response","116","1504601","0.0-115.0","5fb3d71c3144730009fe4a7b","5fb3d71c3144730009fe4a7b_20240207","","","","2","3","1220",""
"24276","0","html-button-response","117","1529383","0.0-116.0","5fb3d71c3144730009fe4a7b","5fb3d71c3144730009fe4a7b_20240207","","","","4","4","923",""
"8924","0","html-button-response","118","1538817","0.0-117.0","5fb3d71c3144730009fe4a7b","5fb3d71c3144730009fe4a7b_20240207","","","","2","3","1208",""
"2976","0","html-button-response","119","1542297","0.0-118.0","5fb3d71c3144730009fe4a7b","5fb3d71c3144730009fe4a7b_20240207","","","","5","5","2155",""
"5792","0","html-button-response","120","1548591","0.0-119.0","5fb3d71c3144730009fe4a7b","5fb3d71c3144730009fe4a7b_20240207","","","","7","8","1379",""
"8527","0","html-button-response","121","1557628","0.0-120.0","5fb3d71c3144730009fe4a7b","5fb3d71c3144730009fe4a7b_20240207","","","","2","5","1750",""
"31357","0","html-button-response","122","1589490","0.0-121.0","5fb3d71c3144730009fe4a7b","5fb3d71c3144730009fe4a7b_20240207","","","","5","5","673",""
"11576","0","html-button-response","123","1601576","0.0-122.0","5fb3d71c3144730009fe4a7b","5fb3d71c3144730009fe4a7b_20240207","","","","6","4","697",""
"34578","0","html-button-response","124","1636657","0.0-123.0","5fb3d71c3144730009fe4a7b","5fb3d71c3144730009fe4a7b_20240207","","","","9","5","66",""
"17870","0","html-button-response","125","1655037","0.0-124.0","5fb3d71c3144730009fe4a7b","5fb3d71c3144730009fe4a7b_20240207","","","","9","6","1265",""
"6750","0","html-button-response","126","1662289","0.0-125.0","5fb3d71c3144730009fe4a7b","5fb3d71c3144730009fe4a7b_20240207","","","","9","5","770",""
"10066","0","html-button-response","127","1672858","0.0-126.0","5fb3d71c3144730009fe4a7b","5fb3d71c3144730009fe4a7b_20240207","","","","9","6","720",""
"10853","0","html-button-response","128","1684216","0.0-127.0","5fb3d71c3144730009fe4a7b","5fb3d71c3144730009fe4a7b_20240207","","","","5","4","1689",""
"8473","0","html-button-response","129","1693192","0.0-128.0","5fb3d71c3144730009fe4a7b","5fb3d71c3144730009fe4a7b_20240207","","","","4","5","674",""
"15207","0","html-button-response","130","1708902","0.0-129.0","5fb3d71c3144730009fe4a7b","5fb3d71c3144730009fe4a7b_20240207","","","","7","5","120",""
"7243","0","html-button-response","131","1716648","0.0-130.0","5fb3d71c3144730009fe4a7b","5fb3d71c3144730009fe4a7b_20240207","","","","8","8","1890",""
"7109","0","html-button-response","132","1724272","0.0-131.0","5fb3d71c3144730009fe4a7b","5fb3d71c3144730009fe4a7b_20240207","","","","7","5","627",""
"7197","0","html-button-response","133","1731972","0.0-132.0","5fb3d71c3144730009fe4a7b","5fb3d71c3144730009fe4a7b_20240207","","","","3","4","880",""
"5733","0","html-button-response","134","1738213","0.0-133.0","5fb3d71c3144730009fe4a7b","5fb3d71c3144730009fe4a7b_20240207","","","","8","5","240",""
"7679","0","html-button-response","135","1746408","0.0-134.0","5fb3d71c3144730009fe4a7b","5fb3d71c3144730009fe4a7b_20240207","","","","9","3","346",""
"8601","0","html-button-response","136","1755527","0.0-135.0","5fb3d71c3144730009fe4a7b","5fb3d71c3144730009fe4a7b_20240207","","","","6","6","1968",""
"5884","0","html-button-response","137","1761921","0.0-136.0","5fb3d71c3144730009fe4a7b","5fb3d71c3144730009fe4a7b_20240207","","","","5","4","1831",""
"6902","0","html-button-response","138","1769329","0.0-137.0","5fb3d71c3144730009fe4a7b","5fb3d71c3144730009fe4a7b_20240207","","","","7","5","73",""
"6334","0","html-button-response","139","1776171","0.0-138.0","5fb3d71c3144730009fe4a7b","5fb3d71c3144730009fe4a7b_20240207","","","","3","3","1377",""
"7943","0","html-button-response","140","1784623","0.0-139.0","5fb3d71c3144730009fe4a7b","5fb3d71c3144730009fe4a7b_20240207","","","","9","6","562",""
"6153","0","html-button-response","141","1791289","0.0-140.0","5fb3d71c3144730009fe4a7b","5fb3d71c3144730009fe4a7b_20240207","","","","6","6","2185",""
"142437","0","html-button-response","142","1934232","0.0-141.0","5fb3d71c3144730009fe4a7b","5fb3d71c3144730009fe4a7b_20240207","","","","4","5","1114",""
"7018","0","html-button-response","143","1941763","0.0-142.0","5fb3d71c3144730009fe4a7b","5fb3d71c3144730009fe4a7b_20240207","","","","2","3","1024",""
"5392","0","html-button-response","144","1947661","0.0-143.0","5fb3d71c3144730009fe4a7b","5fb3d71c3144730009fe4a7b_20240207","","","","4","4","1299",""
"5546","0","html-button-response","145","1953724","0.0-144.0","5fb3d71c3144730009fe4a7b","5fb3d71c3144730009fe4a7b_20240207","","","","6","6","1809",""
"3215","0","html-button-response","146","1957442","0.0-145.0","5fb3d71c3144730009fe4a7b","5fb3d71c3144730009fe4a7b_20240207","","","","5","5","1333",""
"4773","0","html-button-response","147","1962723","0.0-146.0","5fb3d71c3144730009fe4a7b","5fb3d71c3144730009fe4a7b_20240207","","","","3","3","1195",""
"5210","0","html-button-response","148","1968437","0.0-147.0","5fb3d71c3144730009fe4a7b","5fb3d71c3144730009fe4a7b_20240207","","","","6","6","641",""
"5866","0","html-button-response","149","1974807","0.0-148.0","5fb3d71c3144730009fe4a7b","5fb3d71c3144730009fe4a7b_20240207","","","","5","6","992",""
"5126","0","html-button-response","150","1980444","0.0-149.0","5fb3d71c3144730009fe4a7b","5fb3d71c3144730009fe4a7b_20240207","","","","4","4","1338",""
"4677","0","html-button-response","151","1985623","0.0-150.0","5fb3d71c3144730009fe4a7b","5fb3d71c3144730009fe4a7b_20240207","","","","4","5","646",""
"6486","0","html-button-response","152","1992621","0.0-151.0","5fb3d71c3144730009fe4a7b","5fb3d71c3144730009fe4a7b_20240207","","","","2","4","1061",""
"4438","0","html-button-response","153","1997568","0.0-152.0","5fb3d71c3144730009fe4a7b","5fb3d71c3144730009fe4a7b_20240207","","","","3","3","1244",""
"7965","0","html-button-response","154","2006040","0.0-153.0","5fb3d71c3144730009fe4a7b","5fb3d71c3144730009fe4a7b_20240207","","","","6","8","1938",""
"5955","0","html-button-response","155","2012504","0.0-154.0","5fb3d71c3144730009fe4a7b","5fb3d71c3144730009fe4a7b_20240207","","","","7","6","586",""
"8994","0","html-button-response","156","2022000","0.0-155.0","5fb3d71c3144730009fe4a7b","5fb3d71c3144730009fe4a7b_20240207","","","","2","2","1868",""
"3044","0","html-button-response","157","2025556","0.0-156.0","5fb3d71c3144730009fe4a7b","5fb3d71c3144730009fe4a7b_20240207","","","","5","5","1489",""
"4818","0","html-button-response","158","2030877","0.0-157.0","5fb3d71c3144730009fe4a7b","5fb3d71c3144730009fe4a7b_20240207","","","","6","6","1604",""
"6387","0","html-button-response","159","2037773","0.0-158.0","5fb3d71c3144730009fe4a7b","5fb3d71c3144730009fe4a7b_20240207","","","","8","5","105",""
"6219","0","html-button-response","160","2044498","0.0-159.0","5fb3d71c3144730009fe4a7b","5fb3d71c3144730009fe4a7b_20240207","","","","2","4","1412",""
"6150","0","html-button-response","161","2051154","0.0-160.0","5fb3d71c3144730009fe4a7b","5fb3d71c3144730009fe4a7b_20240207","","","","7","8","1708",""
"6246","0","html-button-response","162","2057911","0.0-161.0","5fb3d71c3144730009fe4a7b","5fb3d71c3144730009fe4a7b_20240207","","","","3","3","1568",""
"5433","0","html-button-response","163","2063857","0.0-162.0","5fb3d71c3144730009fe4a7b","5fb3d71c3144730009fe4a7b_20240207","","","","4","5","1959",""
"6054","0","html-button-response","164","2070421","0.0-163.0","5fb3d71c3144730009fe4a7b","5fb3d71c3144730009fe4a7b_20240207","","","","8","5","449",""
"34921","0","html-button-response","165","2105847","0.0-164.0","5fb3d71c3144730009fe4a7b","5fb3d71c3144730009fe4a7b_20240207","","","","6","4","811",""
"8838","0","html-button-response","166","2115188","0.0-165.0","5fb3d71c3144730009fe4a7b","5fb3d71c3144730009fe4a7b_20240207","","","","9","9","1189",""
"4399","0","html-button-response","167","2120089","0.0-166.0","5fb3d71c3144730009fe4a7b","5fb3d71c3144730009fe4a7b_20240207","","","","9","9","1368",""
"11710","0","html-button-response","168","2132310","0.0-167.0","5fb3d71c3144730009fe4a7b","5fb3d71c3144730009fe4a7b_20240207","","","","8","2","1867",""
"5549","0","html-button-response","169","2138365","0.0-168.0","5fb3d71c3144730009fe4a7b","5fb3d71c3144730009fe4a7b_20240207","","","","4","4","1482",""
"7406","0","html-button-response","170","2146281","0.0-169.0","5fb3d71c3144730009fe4a7b","5fb3d71c3144730009fe4a7b_20240207","","","","7","5","268",""
"6266","0","html-button-response","171","2153061","0.0-170.0","5fb3d71c3144730009fe4a7b","5fb3d71c3144730009fe4a7b_20240207","","","","6","6","1250",""
"10264","0","html-button-response","172","2163837","0.0-171.0","5fb3d71c3144730009fe4a7b","5fb3d71c3144730009fe4a7b_20240207","","","","6","6","2122",""
"11140","0","html-button-response","173","2175481","0.0-172.0","5fb3d71c3144730009fe4a7b","5fb3d71c3144730009fe4a7b_20240207","","","","6","4","256",""
"6194","0","html-button-response","174","2182183","0.0-173.0","5fb3d71c3144730009fe4a7b","5fb3d71c3144730009fe4a7b_20240207","","","","5","2","462",""
"4313","0","html-button-response","175","2186999","0.0-174.0","5fb3d71c3144730009fe4a7b","5fb3d71c3144730009fe4a7b_20240207","","","","5","5","1485",""
"6077","0","html-button-response","176","2193586","0.0-175.0","5fb3d71c3144730009fe4a7b","5fb3d71c3144730009fe4a7b_20240207","","","","5","4","671",""
"8473","0","html-button-response","177","2202567","0.0-176.0","5fb3d71c3144730009fe4a7b","5fb3d71c3144730009fe4a7b_20240207","","","","3","4","1260",""
"6969","0","html-button-response","178","2210043","0.0-177.0","5fb3d71c3144730009fe4a7b","5fb3d71c3144730009fe4a7b_20240207","","","","5","5","1492",""
"5446","0","html-button-response","179","2215995","0.0-178.0","5fb3d71c3144730009fe4a7b","5fb3d71c3144730009fe4a7b_20240207","","","","3","5","1270",""
"8305","0","html-button-response","180","2224815","0.0-179.0","5fb3d71c3144730009fe4a7b","5fb3d71c3144730009fe4a7b_20240207","","","","7","8","1239",""
"12735","0","html-button-response","181","2238052","0.0-180.0","5fb3d71c3144730009fe4a7b","5fb3d71c3144730009fe4a7b_20240207","","","","2","4","2064",""
"5373","0","html-button-response","182","2243927","0.0-181.0","5fb3d71c3144730009fe4a7b","5fb3d71c3144730009fe4a7b_20240207","","","","3","3","1402",""
"15294","0","html-button-response","183","2259723","0.0-182.0","5fb3d71c3144730009fe4a7b","5fb3d71c3144730009fe4a7b_20240207","","","","4","3","1235",""
"2668","0","html-button-response","184","2262894","0.0-183.0","5fb3d71c3144730009fe4a7b","5fb3d71c3144730009fe4a7b_20240207","","","","5","5","1799",""
"7158","0","html-button-response","185","2270563","0.0-184.0","5fb3d71c3144730009fe4a7b","5fb3d71c3144730009fe4a7b_20240207","","","","4","4","584",""
"5342","0","html-button-response","186","2276407","0.0-185.0","5fb3d71c3144730009fe4a7b","5fb3d71c3144730009fe4a7b_20240207","","","","6","2","128",""
"5921","0","html-button-response","187","2282831","0.0-186.0","5fb3d71c3144730009fe4a7b","5fb3d71c3144730009fe4a7b_20240207","","","","8","5","98",""
"5404","0","html-button-response","188","2288738","0.0-187.0","5fb3d71c3144730009fe4a7b","5fb3d71c3144730009fe4a7b_20240207","","","","9","6","248",""
"9221","0","html-button-response","189","2298463","0.0-188.0","5fb3d71c3144730009fe4a7b","5fb3d71c3144730009fe4a7b_20240207","","","","3","4","1598",""
"16284","0","html-button-response","190","2315249","0.0-189.0","5fb3d71c3144730009fe4a7b","5fb3d71c3144730009fe4a7b_20240207","","","","7","5","419",""
"8574","0","html-button-response","191","2324336","0.0-190.0","5fb3d71c3144730009fe4a7b","5fb3d71c3144730009fe4a7b_20240207","","","","3","3","441",""
"7245","0","html-button-response","192","2332097","0.0-191.0","5fb3d71c3144730009fe4a7b","5fb3d71c3144730009fe4a7b_20240207","","","","5","4","799",""
"7126","0","html-button-response","193","2339735","0.0-192.0","5fb3d71c3144730009fe4a7b","5fb3d71c3144730009fe4a7b_20240207","","","","3","2","1399",""
"6502","0","html-button-response","194","2346740","0.0-193.0","5fb3d71c3144730009fe4a7b","5fb3d71c3144730009fe4a7b_20240207","","","","4","4","1274",""
"6099","0","html-button-response","195","2353341","0.0-194.0","5fb3d71c3144730009fe4a7b","5fb3d71c3144730009fe4a7b_20240207","","","","8","8","1186",""
"26749","0","html-button-response","196","2380601","0.0-195.0","5fb3d71c3144730009fe4a7b","5fb3d71c3144730009fe4a7b_20240207","","","","6","5","639",""
"7121","0","html-button-response","197","2388225","0.0-196.0","5fb3d71c3144730009fe4a7b","5fb3d71c3144730009fe4a7b_20240207","","","","8","7","1759",""
"6340","0","html-button-response","198","2395069","0.0-197.0","5fb3d71c3144730009fe4a7b","5fb3d71c3144730009fe4a7b_20240207","","","","7","7","1420",""
"7014","0","html-button-response","199","2402585","0.0-198.0","5fb3d71c3144730009fe4a7b","5fb3d71c3144730009fe4a7b_20240207","","","","8","5","28",""
"8560","0","html-button-response","200","2411655","0.0-199.0","5fb3d71c3144730009fe4a7b","5fb3d71c3144730009fe4a7b_20240207","","","","6","7","1743",""
"9169","0","html-button-response","201","2421327","0.0-200.0","5fb3d71c3144730009fe4a7b","5fb3d71c3144730009fe4a7b_20240207","","","","8","5","561",""
"7777","0","html-button-response","202","2429607","0.0-201.0","5fb3d71c3144730009fe4a7b","5fb3d71c3144730009fe4a7b_20240207","","","","4","3","362",""
"2754","0","html-button-response","203","2432869","0.0-202.0","5fb3d71c3144730009fe4a7b","5fb3d71c3144730009fe4a7b_20240207","","","","5","5","1822",""
"7237","0","html-button-response","204","2440609","0.0-203.0","5fb3d71c3144730009fe4a7b","5fb3d71c3144730009fe4a7b_20240207","","","","4","5","2196",""
"6912","0","html-button-response","205","2448031","0.0-204.0","5fb3d71c3144730009fe4a7b","5fb3d71c3144730009fe4a7b_20240207","","","","7","7","1565",""
"3965","0","html-button-response","206","2452499","0.0-205.0","5fb3d71c3144730009fe4a7b","5fb3d71c3144730009fe4a7b_20240207","","","","5","4","2143",""
"5725","0","html-button-response","207","2458729","0.0-206.0","5fb3d71c3144730009fe4a7b","5fb3d71c3144730009fe4a7b_20240207","","","","3","4","1911",""
"3324","0","html-button-response","208","2462556","0.0-207.0","5fb3d71c3144730009fe4a7b","5fb3d71c3144730009fe4a7b_20240207","","","","5","5","2006",""
"5263","0","html-button-response","209","2468331","0.0-208.0","5fb3d71c3144730009fe4a7b","5fb3d71c3144730009fe4a7b_20240207","","","","5","3","633",""
"4172","0","html-button-response","210","2473006","0.0-209.0","5fb3d71c3144730009fe4a7b","5fb3d71c3144730009fe4a7b_20240207","","","","5","3","2200",""
"13254","0","html-button-response","211","2486766","0.0-210.0","5fb3d71c3144730009fe4a7b","5fb3d71c3144730009fe4a7b_20240207","","","","7","5","106",""
"7752","0","html-button-response","212","2495030","0.0-211.0","5fb3d71c3144730009fe4a7b","5fb3d71c3144730009fe4a7b_20240207","","","","8","6","927",""
"16425","0","html-button-response","213","2511968","0.0-212.0","5fb3d71c3144730009fe4a7b","5fb3d71c3144730009fe4a7b_20240207","","","","3","3","543",""
"3973","0","html-button-response","214","2516444","0.0-213.0","5fb3d71c3144730009fe4a7b","5fb3d71c3144730009fe4a7b_20240207","","","","7","5","435",""
"6077","0","html-button-response","215","2523022","0.0-214.0","5fb3d71c3144730009fe4a7b","5fb3d71c3144730009fe4a7b_20240207","","","","8","4","174",""
"4591","0","html-button-response","216","2528116","0.0-215.0","5fb3d71c3144730009fe4a7b","5fb3d71c3144730009fe4a7b_20240207","","","","7","5","580",""
"7770","0","html-button-response","217","2536399","0.0-216.0","5fb3d71c3144730009fe4a7b","5fb3d71c3144730009fe4a7b_20240207","","","","2","4","1075",""
"6045","0","html-button-response","218","2542955","0.0-217.0","5fb3d71c3144730009fe4a7b","5fb3d71c3144730009fe4a7b_20240207","","","","6","7","2121",""
"5967","0","html-button-response","219","2549425","0.0-218.0","5fb3d71c3144730009fe4a7b","5fb3d71c3144730009fe4a7b_20240207","","","","8","8","1185",""
"7250","0","html-button-response","220","2557177","0.0-219.0","5fb3d71c3144730009fe4a7b","5fb3d71c3144730009fe4a7b_20240207","","","","8","5","47",""
"7285","0","html-button-response","221","2564972","0.0-220.0","5fb3d71c3144730009fe4a7b","5fb3d71c3144730009fe4a7b_20240207","","","","7","7","875",""
"7279","0","html-button-response","222","2572755","0.0-221.0","5fb3d71c3144730009fe4a7b","5fb3d71c3144730009fe4a7b_20240207","","","","3","2","1547",""
"6298","0","html-button-response","223","2579567","0.0-222.0","5fb3d71c3144730009fe4a7b","5fb3d71c3144730009fe4a7b_20240207","","","","4","4","1012",""
"6633","0","html-button-response","224","2586709","0.0-223.0","5fb3d71c3144730009fe4a7b","5fb3d71c3144730009fe4a7b_20240207","","","","6","7","1587",""
"6587","0","html-button-response","225","2593805","0.0-224.0","5fb3d71c3144730009fe4a7b","5fb3d71c3144730009fe4a7b_20240207","","","","5","2","104",""
"1831","0","html-button-response","226","2596141","0.0-225.0","5fb3d71c3144730009fe4a7b","5fb3d71c3144730009fe4a7b_20240207","","","Thank you. You have reached the end. 
                       <br>Click the button below to reveal your compensation.
                        <br><br>","","","","1927,1052,228,1873,1391,1724,283,2164,1688,1444,727,862,726,1932,1407,789,1717,428,1016,1319,1188,358,2024,1597,1787,632,1882,123,1757,1806,1816,1989,1388,194,2098,381,1563,1145,1910,1223,1435,37,1533,170,1793,257,930,759,916,1963,127,1056,90,1804,1733,1300,1423,1970,1601,333,249,1921,1065,1261,755,827,1248,2037,97,111,1172,847,1966,2153,1125,1798,841,214,890,1730,2026,464,1074,931,762,64,1199,1949,592,679,45,587,1230,846,1686,544,2180,807,2048,76,447,2128,711,1700,2123,1845,1039,1128,1000,184,1220,923,1208,2155,1379,1750,673,697,66,1265,770,720,1689,674,120,1890,627,880,240,346,1968,1831,73,1377,562,2185,1114,1024,1299,1809,1333,1195,641,992,1338,646,1061,1244,1938,586,1868,1489,1604,105,1412,1708,1568,1959,449,811,1189,1368,1867,1482,268,1250,2122,256,462,1485,671,1260,1492,1270,1239,2064,1402,1235,1799,584,128,98,248,1598,419,441,799,1399,1274,1186,639,1759,1420,28,1743,561,362,1822,2196,1565,2143,1911,2006,633,2200,106,927,543,435,174,580,1075,2121,1185,47,875,1547,1012,1587,104"
