"rt","response","trial_type","trial_index","time_elapsed","internal_node_id","part_ID","ID_DATE","screen_id","understand_correct","stimulus","arousal","valence","img_id","tested_trial_idx"
"4357","0","html-button-response","0","4361","0.0-0.0","5dd31760fb7d41000c6610e3","5dd31760fb7d41000c6610e3_20240207","","","","","","",""
"7313","[object Object]","survey-html-form","1","12179","0.0-1.0","5dd31760fb7d41000c6610e3","5dd31760fb7d41000c6610e3_20240207","prolific_id_page","","","","","",""
"45029","0","html-button-response","2","57211","0.0-2.0","5dd31760fb7d41000c6610e3","5dd31760fb7d41000c6610e3_20240207","","","","","","",""
"78687","0","html-button-response","3","136400","0.0-3.0-0.0","5dd31760fb7d41000c6610e3","5dd31760fb7d41000c6610e3_20240207","","true","","","","",""
"1250","0","html-button-response","4","138153","0.0-4.0","5dd31760fb7d41000c6610e3","5dd31760fb7d41000c6610e3_20240207","","","
<div>
Great! You will now go on to rate the faces.
<br><br>
</div>
","","","",""
"15713","0","html-button-response","5","154369","0.0-5.0","5dd31760fb7d41000c6610e3","5dd31760fb7d41000c6610e3_20240207","","","","5","1","1752",""
"3167","0","html-button-response","6","158038","0.0-6.0","5dd31760fb7d41000c6610e3","5dd31760fb7d41000c6610e3_20240207","","","","5","5","667",""
"8573","0","html-button-response","7","167113","0.0-7.0","5dd31760fb7d41000c6610e3","5dd31760fb7d41000c6610e3_20240207","","","","5","9","2083",""
"2589","0","html-button-response","8","170205","0.0-8.0","5dd31760fb7d41000c6610e3","5dd31760fb7d41000c6610e3_20240207","","","","5","5","1161",""
"2754","0","html-button-response","9","173461","0.0-9.0","5dd31760fb7d41000c6610e3","5dd31760fb7d41000c6610e3_20240207","","","","5","5","2139",""
"9124","0","html-button-response","10","183088","0.0-10.0","5dd31760fb7d41000c6610e3","5dd31760fb7d41000c6610e3_20240207","","","","9","5","248",""
"2490","0","html-button-response","11","186081","0.0-11.0","5dd31760fb7d41000c6610e3","5dd31760fb7d41000c6610e3_20240207","","","","5","5","1458",""
"6074","0","html-button-response","12","192657","0.0-12.0","5dd31760fb7d41000c6610e3","5dd31760fb7d41000c6610e3_20240207","","","","5","1","2053",""
"5790","0","html-button-response","13","198949","0.0-13.0","5dd31760fb7d41000c6610e3","5dd31760fb7d41000c6610e3_20240207","","","","9","5","1371",""
"5445","0","html-button-response","14","204895","0.0-14.0","5dd31760fb7d41000c6610e3","5dd31760fb7d41000c6610e3_20240207","","","","9","5","1084",""
"2477","0","html-button-response","15","207874","0.0-15.0","5dd31760fb7d41000c6610e3","5dd31760fb7d41000c6610e3_20240207","","","","5","5","2194",""
"5159","0","html-button-response","16","213536","0.0-16.0","5dd31760fb7d41000c6610e3","5dd31760fb7d41000c6610e3_20240207","","","","2","1","1820",""
"2184","0","html-button-response","17","216222","0.0-17.0","5dd31760fb7d41000c6610e3","5dd31760fb7d41000c6610e3_20240207","","","","5","5","1821",""
"3814","0","html-button-response","18","220538","0.0-18.0","5dd31760fb7d41000c6610e3","5dd31760fb7d41000c6610e3_20240207","","","","7","1","151",""
"4294","0","html-button-response","19","225335","0.0-19.0","5dd31760fb7d41000c6610e3","5dd31760fb7d41000c6610e3_20240207","","","","6","1","1261",""
"2995","0","html-button-response","20","228831","0.0-20.0","5dd31760fb7d41000c6610e3","5dd31760fb7d41000c6610e3_20240207","","","","6","1","1963",""
"4378","0","html-button-response","21","233711","0.0-21.0","5dd31760fb7d41000c6610e3","5dd31760fb7d41000c6610e3_20240207","","","","9","5","1526",""
"4552","0","html-button-response","22","238765","0.0-22.0","5dd31760fb7d41000c6610e3","5dd31760fb7d41000c6610e3_20240207","","","","5","1","468",""
"2270","0","html-button-response","23","241536","0.0-23.0","5dd31760fb7d41000c6610e3","5dd31760fb7d41000c6610e3_20240207","","","","5","5","1789",""
"3137","0","html-button-response","24","245175","0.0-24.0","5dd31760fb7d41000c6610e3","5dd31760fb7d41000c6610e3_20240207","","","","9","4","736",""
"4723","0","html-button-response","25","250400","0.0-25.0","5dd31760fb7d41000c6610e3","5dd31760fb7d41000c6610e3_20240207","","","","5","1","126",""
"3050","0","html-button-response","26","253952","0.0-26.0","5dd31760fb7d41000c6610e3","5dd31760fb7d41000c6610e3_20240207","","","","5","5","1835",""
"2646","0","html-button-response","27","257100","0.0-27.0","5dd31760fb7d41000c6610e3","5dd31760fb7d41000c6610e3_20240207","","","","3","1","531",""
"6432","0","html-button-response","28","264034","0.0-28.0","5dd31760fb7d41000c6610e3","5dd31760fb7d41000c6610e3_20240207","","","","3","1","487",""
"2903","0","html-button-response","29","267438","0.0-29.0","5dd31760fb7d41000c6610e3","5dd31760fb7d41000c6610e3_20240207","","","","5","1","1425",""
"2275","0","html-button-response","30","270215","0.0-30.0","5dd31760fb7d41000c6610e3","5dd31760fb7d41000c6610e3_20240207","","","","5","5","958",""
"2776","0","html-button-response","31","273492","0.0-31.0","5dd31760fb7d41000c6610e3","5dd31760fb7d41000c6610e3_20240207","","","","5","5","1135",""
"3459","0","html-button-response","32","277454","0.0-32.0","5dd31760fb7d41000c6610e3","5dd31760fb7d41000c6610e3_20240207","","","","9","6","510",""
"2446","0","html-button-response","33","280402","0.0-33.0","5dd31760fb7d41000c6610e3","5dd31760fb7d41000c6610e3_20240207","","","","9","6","48",""
"2265","0","html-button-response","34","283169","0.0-34.0","5dd31760fb7d41000c6610e3","5dd31760fb7d41000c6610e3_20240207","","","","4","1","1118",""
"3462","0","html-button-response","35","287132","0.0-35.0","5dd31760fb7d41000c6610e3","5dd31760fb7d41000c6610e3_20240207","","","","4","1","620",""
"2990","0","html-button-response","36","290624","0.0-36.0","5dd31760fb7d41000c6610e3","5dd31760fb7d41000c6610e3_20240207","","","","2","1","1217",""
"2582","0","html-button-response","37","293708","0.0-37.0","5dd31760fb7d41000c6610e3","5dd31760fb7d41000c6610e3_20240207","","","","1","1","689",""
"1931","0","html-button-response","38","296141","0.0-38.0","5dd31760fb7d41000c6610e3","5dd31760fb7d41000c6610e3_20240207","","","","1","1","1075",""
"2026","0","html-button-response","39","298668","0.0-39.0","5dd31760fb7d41000c6610e3","5dd31760fb7d41000c6610e3_20240207","","","","5","5","2153",""
"2074","0","html-button-response","40","301244","0.0-40.0","5dd31760fb7d41000c6610e3","5dd31760fb7d41000c6610e3_20240207","","","","5","5","1668",""
"3385","0","html-button-response","41","305131","0.0-41.0","5dd31760fb7d41000c6610e3","5dd31760fb7d41000c6610e3_20240207","","","","1","1","715",""
"2316","0","html-button-response","42","307949","0.0-42.0","5dd31760fb7d41000c6610e3","5dd31760fb7d41000c6610e3_20240207","","","","5","5","1290",""
"2570","0","html-button-response","43","311022","0.0-43.0","5dd31760fb7d41000c6610e3","5dd31760fb7d41000c6610e3_20240207","","","","5","1","776",""
"3406","0","html-button-response","44","314930","0.0-44.0","5dd31760fb7d41000c6610e3","5dd31760fb7d41000c6610e3_20240207","","","","9","4","19",""
"2282","0","html-button-response","45","317714","0.0-45.0","5dd31760fb7d41000c6610e3","5dd31760fb7d41000c6610e3_20240207","","","","9","5","511",""
"3474","0","html-button-response","46","321690","0.0-46.0","5dd31760fb7d41000c6610e3","5dd31760fb7d41000c6610e3_20240207","","","","6","1","278",""
"3362","0","html-button-response","47","325553","0.0-47.0","5dd31760fb7d41000c6610e3","5dd31760fb7d41000c6610e3_20240207","","","","9","8","1197",""
"2684","0","html-button-response","48","328739","0.0-48.0","5dd31760fb7d41000c6610e3","5dd31760fb7d41000c6610e3_20240207","","","","9","7","1405",""
"1965","0","html-button-response","49","331206","0.0-49.0","5dd31760fb7d41000c6610e3","5dd31760fb7d41000c6610e3_20240207","","","","5","5","968",""
"3176","0","html-button-response","50","334884","0.0-50.0","5dd31760fb7d41000c6610e3","5dd31760fb7d41000c6610e3_20240207","","","","7","1","261",""
"2528","0","html-button-response","51","337914","0.0-51.0","5dd31760fb7d41000c6610e3","5dd31760fb7d41000c6610e3_20240207","","","","4","1","319",""
"2976","0","html-button-response","52","341393","0.0-52.0","5dd31760fb7d41000c6610e3","5dd31760fb7d41000c6610e3_20240207","","","","5","1","449",""
"2198","0","html-button-response","53","344094","0.0-53.0","5dd31760fb7d41000c6610e3","5dd31760fb7d41000c6610e3_20240207","","","","5","1","63",""
"2087","0","html-button-response","54","346682","0.0-54.0","5dd31760fb7d41000c6610e3","5dd31760fb7d41000c6610e3_20240207","","","","5","5","820",""
"2288","0","html-button-response","55","349472","0.0-55.0","5dd31760fb7d41000c6610e3","5dd31760fb7d41000c6610e3_20240207","","","","3","1","1751",""
"3143","0","html-button-response","56","353117","0.0-56.0","5dd31760fb7d41000c6610e3","5dd31760fb7d41000c6610e3_20240207","","","","9","5","2072",""
"3792","0","html-button-response","57","357412","0.0-57.0","5dd31760fb7d41000c6610e3","5dd31760fb7d41000c6610e3_20240207","","","","8","1","796",""
"4410","0","html-button-response","58","362324","0.0-58.0","5dd31760fb7d41000c6610e3","5dd31760fb7d41000c6610e3_20240207","","","","9","4","342",""
"2157","0","html-button-response","59","364983","0.0-59.0","5dd31760fb7d41000c6610e3","5dd31760fb7d41000c6610e3_20240207","","","","5","5","2151",""
"1953","0","html-button-response","60","367438","0.0-60.0","5dd31760fb7d41000c6610e3","5dd31760fb7d41000c6610e3_20240207","","","","5","5","1618",""
"1888","0","html-button-response","61","369827","0.0-61.0","5dd31760fb7d41000c6610e3","5dd31760fb7d41000c6610e3_20240207","","","","5","5","1483",""
"2545","0","html-button-response","62","372874","0.0-62.0","5dd31760fb7d41000c6610e3","5dd31760fb7d41000c6610e3_20240207","","","","9","5","1696",""
"3767","0","html-button-response","63","377143","0.0-63.0","5dd31760fb7d41000c6610e3","5dd31760fb7d41000c6610e3_20240207","","","","5","1","583",""
"2730","0","html-button-response","64","380374","0.0-64.0","5dd31760fb7d41000c6610e3","5dd31760fb7d41000c6610e3_20240207","","","","5","5","812",""
"2684","0","html-button-response","65","383560","0.0-65.0","5dd31760fb7d41000c6610e3","5dd31760fb7d41000c6610e3_20240207","","","","3","1","141",""
"4354","0","html-button-response","66","388417","0.0-66.0","5dd31760fb7d41000c6610e3","5dd31760fb7d41000c6610e3_20240207","","","","9","2","56",""
"2447","0","html-button-response","67","391366","0.0-67.0","5dd31760fb7d41000c6610e3","5dd31760fb7d41000c6610e3_20240207","","","","3","1","945",""
"2932","0","html-button-response","68","394800","0.0-68.0","5dd31760fb7d41000c6610e3","5dd31760fb7d41000c6610e3_20240207","","","","9","6","1198",""
"2330","0","html-button-response","69","397632","0.0-69.0","5dd31760fb7d41000c6610e3","5dd31760fb7d41000c6610e3_20240207","","","","2","1","1027",""
"2650","0","html-button-response","70","400784","0.0-70.0","5dd31760fb7d41000c6610e3","5dd31760fb7d41000c6610e3_20240207","","","","3","1","129",""
"1996","0","html-button-response","71","403281","0.0-71.0","5dd31760fb7d41000c6610e3","5dd31760fb7d41000c6610e3_20240207","","","","5","5","2150",""
"2401","0","html-button-response","72","406184","0.0-72.0","5dd31760fb7d41000c6610e3","5dd31760fb7d41000c6610e3_20240207","","","","4","1","459",""
"2201","0","html-button-response","73","408887","0.0-73.0","5dd31760fb7d41000c6610e3","5dd31760fb7d41000c6610e3_20240207","","","","9","6","1210",""
"3688","0","html-button-response","74","413076","0.0-74.0","5dd31760fb7d41000c6610e3","5dd31760fb7d41000c6610e3_20240207","","","","5","1","1818",""
"2546","0","html-button-response","75","416124","0.0-75.0","5dd31760fb7d41000c6610e3","5dd31760fb7d41000c6610e3_20240207","","","","9","7","847",""
"2707","0","html-button-response","76","419333","0.0-76.0","5dd31760fb7d41000c6610e3","5dd31760fb7d41000c6610e3_20240207","","","","4","1","1711",""
"2105","0","html-button-response","77","421940","0.0-77.0","5dd31760fb7d41000c6610e3","5dd31760fb7d41000c6610e3_20240207","","","","5","5","1266",""
"4675","0","html-button-response","78","427117","0.0-78.0","5dd31760fb7d41000c6610e3","5dd31760fb7d41000c6610e3_20240207","","","","9","4","703",""
"2965","0","html-button-response","79","430584","0.0-79.0","5dd31760fb7d41000c6610e3","5dd31760fb7d41000c6610e3_20240207","","","","9","4","693",""
"2273","0","html-button-response","80","433359","0.0-80.0","5dd31760fb7d41000c6610e3","5dd31760fb7d41000c6610e3_20240207","","","","5","5","1834",""
"2892","0","html-button-response","81","436753","0.0-81.0","5dd31760fb7d41000c6610e3","5dd31760fb7d41000c6610e3_20240207","","","","5","1","710",""
"2680","0","html-button-response","82","439935","0.0-82.0","5dd31760fb7d41000c6610e3","5dd31760fb7d41000c6610e3_20240207","","","","9","3","562",""
"2421","0","html-button-response","83","442857","0.0-83.0","5dd31760fb7d41000c6610e3","5dd31760fb7d41000c6610e3_20240207","","","","2","1","910",""
"2179","0","html-button-response","84","445538","0.0-84.0","5dd31760fb7d41000c6610e3","5dd31760fb7d41000c6610e3_20240207","","","","5","5","1810",""
"2667","0","html-button-response","85","448706","0.0-85.0","5dd31760fb7d41000c6610e3","5dd31760fb7d41000c6610e3_20240207","","","","3","1","50",""
"1857","0","html-button-response","86","451065","0.0-86.0","5dd31760fb7d41000c6610e3","5dd31760fb7d41000c6610e3_20240207","","","","1","1","1400",""
"1866","0","html-button-response","87","453434","0.0-87.0","5dd31760fb7d41000c6610e3","5dd31760fb7d41000c6610e3_20240207","","","","1","1","1612",""
"4784","0","html-button-response","88","458720","0.0-88.0","5dd31760fb7d41000c6610e3","5dd31760fb7d41000c6610e3_20240207","","","","9","5","872",""
"6192","0","html-button-response","89","465414","0.0-89.0","5dd31760fb7d41000c6610e3","5dd31760fb7d41000c6610e3_20240207","","","","9","3","2101",""
"2844","0","html-button-response","90","468759","0.0-90.0","5dd31760fb7d41000c6610e3","5dd31760fb7d41000c6610e3_20240207","","","","4","1","997",""
"2381","0","html-button-response","91","471642","0.0-91.0","5dd31760fb7d41000c6610e3","5dd31760fb7d41000c6610e3_20240207","","","","4","1","1672",""
"3286","0","html-button-response","92","475430","0.0-92.0","5dd31760fb7d41000c6610e3","5dd31760fb7d41000c6610e3_20240207","","","","5","1","136",""
"2238","0","html-button-response","93","478170","0.0-93.0","5dd31760fb7d41000c6610e3","5dd31760fb7d41000c6610e3_20240207","","","","2","1","568",""
"2322","0","html-button-response","94","480994","0.0-94.0","5dd31760fb7d41000c6610e3","5dd31760fb7d41000c6610e3_20240207","","","","9","5","1058",""
"2184","0","html-button-response","95","483680","0.0-95.0","5dd31760fb7d41000c6610e3","5dd31760fb7d41000c6610e3_20240207","","","","1","1","1729",""
"3214","0","html-button-response","96","487397","0.0-96.0","5dd31760fb7d41000c6610e3","5dd31760fb7d41000c6610e3_20240207","","","","2","1","1311",""
"3384","0","html-button-response","97","491283","0.0-97.0","5dd31760fb7d41000c6610e3","5dd31760fb7d41000c6610e3_20240207","","","","9","2","599",""
"5004","0","html-button-response","98","496789","0.0-98.0","5dd31760fb7d41000c6610e3","5dd31760fb7d41000c6610e3_20240207","","","","5","5","2140",""
"2416","0","html-button-response","99","499707","0.0-99.0","5dd31760fb7d41000c6610e3","5dd31760fb7d41000c6610e3_20240207","","","","5","5","1107",""
"2213","0","html-button-response","100","502421","0.0-100.0","5dd31760fb7d41000c6610e3","5dd31760fb7d41000c6610e3_20240207","","","","9","5","885",""
"3155","0","html-button-response","101","506078","0.0-101.0","5dd31760fb7d41000c6610e3","5dd31760fb7d41000c6610e3_20240207","","","","9","2","18",""
"2618","0","html-button-response","102","509198","0.0-102.0","5dd31760fb7d41000c6610e3","5dd31760fb7d41000c6610e3_20240207","","","","5","5","1619",""
"3189","0","html-button-response","103","512889","0.0-103.0","5dd31760fb7d41000c6610e3","5dd31760fb7d41000c6610e3_20240207","","","","9","2","1129",""
"2191","0","html-button-response","104","515582","0.0-104.0","5dd31760fb7d41000c6610e3","5dd31760fb7d41000c6610e3_20240207","","","","5","1","307",""
"2269","0","html-button-response","105","518353","0.0-105.0","5dd31760fb7d41000c6610e3","5dd31760fb7d41000c6610e3_20240207","","","","5","1","973",""
"2312","0","html-button-response","106","521167","0.0-106.0","5dd31760fb7d41000c6610e3","5dd31760fb7d41000c6610e3_20240207","","","","5","1","2013",""
"2225","0","html-button-response","107","523895","0.0-107.0","5dd31760fb7d41000c6610e3","5dd31760fb7d41000c6610e3_20240207","","","","3","1","1131",""
"2657","0","html-button-response","108","527053","0.0-108.0","5dd31760fb7d41000c6610e3","5dd31760fb7d41000c6610e3_20240207","","","","5","5","2178",""
"2329","0","html-button-response","109","529885","0.0-109.0","5dd31760fb7d41000c6610e3","5dd31760fb7d41000c6610e3_20240207","","","","5","5","1642",""
"2751","0","html-button-response","110","533138","0.0-110.0","5dd31760fb7d41000c6610e3","5dd31760fb7d41000c6610e3_20240207","","","","9","4","94",""
"2795","0","html-button-response","111","536436","0.0-111.0","5dd31760fb7d41000c6610e3","5dd31760fb7d41000c6610e3_20240207","","","","9","4","573",""
"3066","0","html-button-response","112","540004","0.0-112.0","5dd31760fb7d41000c6610e3","5dd31760fb7d41000c6610e3_20240207","","","","9","7","1383",""
"2997","0","html-button-response","113","543502","0.0-113.0","5dd31760fb7d41000c6610e3","5dd31760fb7d41000c6610e3_20240207","","","","6","1","76",""
"3209","0","html-button-response","114","547213","0.0-114.0","5dd31760fb7d41000c6610e3","5dd31760fb7d41000c6610e3_20240207","","","","9","4","1082",""
"3081","0","html-button-response","115","550796","0.0-115.0","5dd31760fb7d41000c6610e3","5dd31760fb7d41000c6610e3_20240207","","","","9","9","1577",""
"2548","0","html-button-response","116","553846","0.0-116.0","5dd31760fb7d41000c6610e3","5dd31760fb7d41000c6610e3_20240207","","","","2","1","1255",""
"2087","0","html-button-response","117","556435","0.0-117.0","5dd31760fb7d41000c6610e3","5dd31760fb7d41000c6610e3_20240207","","","","1","1","1623",""
"2633","0","html-button-response","118","559571","0.0-118.0","5dd31760fb7d41000c6610e3","5dd31760fb7d41000c6610e3_20240207","","","","9","4","1083",""
"3122","0","html-button-response","119","563195","0.0-119.0","5dd31760fb7d41000c6610e3","5dd31760fb7d41000c6610e3_20240207","","","","9","4","1892",""
"6490","0","html-button-response","120","570188","0.0-120.0","5dd31760fb7d41000c6610e3","5dd31760fb7d41000c6610e3_20240207","","","","5","5","1154",""
"2530","0","html-button-response","121","573220","0.0-121.0","5dd31760fb7d41000c6610e3","5dd31760fb7d41000c6610e3_20240207","","","","4","1","1073",""
"3245","0","html-button-response","122","576967","0.0-122.0","5dd31760fb7d41000c6610e3","5dd31760fb7d41000c6610e3_20240207","","","","5","5","1436",""
"7997","0","html-button-response","123","585466","0.0-123.0","5dd31760fb7d41000c6610e3","5dd31760fb7d41000c6610e3_20240207","","","","1","1","1130",""
"13826","0","html-button-response","124","599794","0.0-124.0","5dd31760fb7d41000c6610e3","5dd31760fb7d41000c6610e3_20240207","","","","1","1","49",""
"15052","0","html-button-response","125","615347","0.0-125.0","5dd31760fb7d41000c6610e3","5dd31760fb7d41000c6610e3_20240207","","","","5","1","1168",""
"2624","0","html-button-response","126","618474","0.0-126.0","5dd31760fb7d41000c6610e3","5dd31760fb7d41000c6610e3_20240207","","","","2","1","1441",""
"5830","0","html-button-response","127","624805","0.0-127.0","5dd31760fb7d41000c6610e3","5dd31760fb7d41000c6610e3_20240207","","","","7","1","196",""
"4219","0","html-button-response","128","629526","0.0-128.0","5dd31760fb7d41000c6610e3","5dd31760fb7d41000c6610e3_20240207","","","","5","5","1008",""
"12414","0","html-button-response","129","642442","0.0-129.0","5dd31760fb7d41000c6610e3","5dd31760fb7d41000c6610e3_20240207","","","","3","1","635",""
"2386","0","html-button-response","130","645332","0.0-130.0","5dd31760fb7d41000c6610e3","5dd31760fb7d41000c6610e3_20240207","","","","4","1","503",""
"2596","0","html-button-response","131","648430","0.0-131.0","5dd31760fb7d41000c6610e3","5dd31760fb7d41000c6610e3_20240207","","","","5","1","593",""
"2892","0","html-button-response","132","651824","0.0-132.0","5dd31760fb7d41000c6610e3","5dd31760fb7d41000c6610e3_20240207","","","","9","7","1902",""
"2394","0","html-button-response","133","654719","0.0-133.0","5dd31760fb7d41000c6610e3","5dd31760fb7d41000c6610e3_20240207","","","","5","5","1488",""
"2650","0","html-button-response","134","657871","0.0-134.0","5dd31760fb7d41000c6610e3","5dd31760fb7d41000c6610e3_20240207","","","","5","5","1328",""
"4244","0","html-button-response","135","662617","0.0-135.0","5dd31760fb7d41000c6610e3","5dd31760fb7d41000c6610e3_20240207","","","","7","1","372",""
"2703","0","html-button-response","136","665821","0.0-136.0","5dd31760fb7d41000c6610e3","5dd31760fb7d41000c6610e3_20240207","","","","2","1","1195",""
"1931","0","html-button-response","137","668254","0.0-137.0","5dd31760fb7d41000c6610e3","5dd31760fb7d41000c6610e3_20240207","","","","1","1","1885",""
"2472","0","html-button-response","138","671228","0.0-138.0","5dd31760fb7d41000c6610e3","5dd31760fb7d41000c6610e3_20240207","","","","3","1","442",""
"4612","0","html-button-response","139","676343","0.0-139.0","5dd31760fb7d41000c6610e3","5dd31760fb7d41000c6610e3_20240207","","","","5","1","1338",""
"2623","0","html-button-response","140","679468","0.0-140.0","5dd31760fb7d41000c6610e3","5dd31760fb7d41000c6610e3_20240207","","","","3","1","295",""
"2699","0","html-button-response","141","682669","0.0-141.0","5dd31760fb7d41000c6610e3","5dd31760fb7d41000c6610e3_20240207","","","","2","1","12",""
"3000","0","html-button-response","142","686171","0.0-142.0","5dd31760fb7d41000c6610e3","5dd31760fb7d41000c6610e3_20240207","","","","5","1","127",""
"2363","0","html-button-response","143","689036","0.0-143.0","5dd31760fb7d41000c6610e3","5dd31760fb7d41000c6610e3_20240207","","","","9","6","1743",""
"3178","0","html-button-response","144","692716","0.0-144.0","5dd31760fb7d41000c6610e3","5dd31760fb7d41000c6610e3_20240207","","","","4","1","492",""
"2817","0","html-button-response","145","696035","0.0-145.0","5dd31760fb7d41000c6610e3","5dd31760fb7d41000c6610e3_20240207","","","","5","5","1146",""
"2881","0","html-button-response","146","699418","0.0-146.0","5dd31760fb7d41000c6610e3","5dd31760fb7d41000c6610e3_20240207","","","","9","7","1406",""
"2405","0","html-button-response","147","702325","0.0-147.0","5dd31760fb7d41000c6610e3","5dd31760fb7d41000c6610e3_20240207","","","","9","7","2110",""
"4336","0","html-button-response","148","707163","0.0-148.0","5dd31760fb7d41000c6610e3","5dd31760fb7d41000c6610e3_20240207","","","","9","2","80",""
"2426","0","html-button-response","149","710092","0.0-149.0","5dd31760fb7d41000c6610e3","5dd31760fb7d41000c6610e3_20240207","","","","9","2","34",""
"2392","0","html-button-response","150","712987","0.0-150.0","5dd31760fb7d41000c6610e3","5dd31760fb7d41000c6610e3_20240207","","","","5","5","2147",""
"2122","0","html-button-response","151","715610","0.0-151.0","5dd31760fb7d41000c6610e3","5dd31760fb7d41000c6610e3_20240207","","","","1","1","1207",""
"2263","0","html-button-response","152","718375","0.0-152.0","5dd31760fb7d41000c6610e3","5dd31760fb7d41000c6610e3_20240207","","","","2","1","311",""
"2270","0","html-button-response","153","721147","0.0-153.0","5dd31760fb7d41000c6610e3","5dd31760fb7d41000c6610e3_20240207","","","","2","1","270",""
"2952","0","html-button-response","154","724601","0.0-154.0","5dd31760fb7d41000c6610e3","5dd31760fb7d41000c6610e3_20240207","","","","5","5","1329",""
"2232","0","html-button-response","155","727335","0.0-155.0","5dd31760fb7d41000c6610e3","5dd31760fb7d41000c6610e3_20240207","","","","4","1","986",""
"2498","0","html-button-response","156","730335","0.0-156.0","5dd31760fb7d41000c6610e3","5dd31760fb7d41000c6610e3_20240207","","","","3","1","1010",""
"3374","0","html-button-response","157","734211","0.0-157.0","5dd31760fb7d41000c6610e3","5dd31760fb7d41000c6610e3_20240207","","","","5","1","773",""
"6079","0","html-button-response","158","740792","0.0-158.0","5dd31760fb7d41000c6610e3","5dd31760fb7d41000c6610e3_20240207","","","","5","4","1293",""
"4427","0","html-button-response","159","745721","0.0-159.0","5dd31760fb7d41000c6610e3","5dd31760fb7d41000c6610e3_20240207","","","","9","2","707",""
"3242","0","html-button-response","160","749465","0.0-160.0","5dd31760fb7d41000c6610e3","5dd31760fb7d41000c6610e3_20240207","","","","2","1","1948",""
"2036","0","html-button-response","161","752003","0.0-161.0","5dd31760fb7d41000c6610e3","5dd31760fb7d41000c6610e3_20240207","","","","1","1","844",""
"3430","0","html-button-response","162","755935","0.0-162.0","5dd31760fb7d41000c6610e3","5dd31760fb7d41000c6610e3_20240207","","","","7","1","398",""
"2670","0","html-button-response","163","759107","0.0-163.0","5dd31760fb7d41000c6610e3","5dd31760fb7d41000c6610e3_20240207","","","","2","1","909",""
"3126","0","html-button-response","164","762735","0.0-164.0","5dd31760fb7d41000c6610e3","5dd31760fb7d41000c6610e3_20240207","","","","9","7","1524",""
"4315","0","html-button-response","165","767552","0.0-165.0","5dd31760fb7d41000c6610e3","5dd31760fb7d41000c6610e3_20240207","","","","9","7","1420",""
"5571","0","html-button-response","166","773625","0.0-166.0","5dd31760fb7d41000c6610e3","5dd31760fb7d41000c6610e3_20240207","","","","5","5","1669",""
"3054","0","html-button-response","167","777181","0.0-167.0","5dd31760fb7d41000c6610e3","5dd31760fb7d41000c6610e3_20240207","","","","2","1","1258",""
"2456","0","html-button-response","168","780139","0.0-168.0","5dd31760fb7d41000c6610e3","5dd31760fb7d41000c6610e3_20240207","","","","5","5","1656",""
"2301","0","html-button-response","169","782942","0.0-169.0","5dd31760fb7d41000c6610e3","5dd31760fb7d41000c6610e3_20240207","","","","2","1","260",""
"4335","0","html-button-response","170","787779","0.0-170.0","5dd31760fb7d41000c6610e3","5dd31760fb7d41000c6610e3_20240207","","","","5","1","1776",""
"9227","0","html-button-response","171","797508","0.0-171.0","5dd31760fb7d41000c6610e3","5dd31760fb7d41000c6610e3_20240207","","","","9","2","353",""
"4944","0","html-button-response","172","802953","0.0-172.0","5dd31760fb7d41000c6610e3","5dd31760fb7d41000c6610e3_20240207","","","","9","2","355",""
"3649","0","html-button-response","173","807105","0.0-173.0","5dd31760fb7d41000c6610e3","5dd31760fb7d41000c6610e3_20240207","","","","5","1","837",""
"5617","0","html-button-response","174","813224","0.0-174.0","5dd31760fb7d41000c6610e3","5dd31760fb7d41000c6610e3_20240207","","","","5","1","977",""
"2767","0","html-button-response","175","816493","0.0-175.0","5dd31760fb7d41000c6610e3","5dd31760fb7d41000c6610e3_20240207","","","","9","7","1589",""
"2855","0","html-button-response","176","819849","0.0-176.0","5dd31760fb7d41000c6610e3","5dd31760fb7d41000c6610e3_20240207","","","","2","1","947",""
"2431","0","html-button-response","177","822783","0.0-177.0","5dd31760fb7d41000c6610e3","5dd31760fb7d41000c6610e3_20240207","","","","2","1","1113",""
"2370","0","html-button-response","178","825655","0.0-178.0","5dd31760fb7d41000c6610e3","5dd31760fb7d41000c6610e3_20240207","","","","9","7","1201",""
"2961","0","html-button-response","179","829118","0.0-179.0","5dd31760fb7d41000c6610e3","5dd31760fb7d41000c6610e3_20240207","","","","5","5","1306",""
"2892","0","html-button-response","180","832511","0.0-180.0","5dd31760fb7d41000c6610e3","5dd31760fb7d41000c6610e3_20240207","","","","9","3","190",""
"2778","0","html-button-response","181","835791","0.0-181.0","5dd31760fb7d41000c6610e3","5dd31760fb7d41000c6610e3_20240207","","","","9","6","2074",""
"2976","0","html-button-response","182","839269","0.0-182.0","5dd31760fb7d41000c6610e3","5dd31760fb7d41000c6610e3_20240207","","","","5","1","933",""
"5018","0","html-button-response","183","844788","0.0-183.0","5dd31760fb7d41000c6610e3","5dd31760fb7d41000c6610e3_20240207","","","","7","1","660",""
"3129","0","html-button-response","184","848419","0.0-184.0","5dd31760fb7d41000c6610e3","5dd31760fb7d41000c6610e3_20240207","","","","7","1","479",""
"23335","0","html-button-response","185","872256","0.0-185.0","5dd31760fb7d41000c6610e3","5dd31760fb7d41000c6610e3_20240207","","","","5","1","2129",""
"4824","0","html-button-response","186","877582","0.0-186.0","5dd31760fb7d41000c6610e3","5dd31760fb7d41000c6610e3_20240207","","","","5","5","1147",""
"3371","0","html-button-response","187","881455","0.0-187.0","5dd31760fb7d41000c6610e3","5dd31760fb7d41000c6610e3_20240207","","","","9","6","1059",""
"2589","0","html-button-response","188","884546","0.0-188.0","5dd31760fb7d41000c6610e3","5dd31760fb7d41000c6610e3_20240207","","","","9","8","2045",""
"7997","0","html-button-response","189","893044","0.0-189.0","5dd31760fb7d41000c6610e3","5dd31760fb7d41000c6610e3_20240207","","","","9","2","589",""
"3443","0","html-button-response","190","896990","0.0-190.0","5dd31760fb7d41000c6610e3","5dd31760fb7d41000c6610e3_20240207","","","","9","1","73",""
"2826","0","html-button-response","191","900318","0.0-191.0","5dd31760fb7d41000c6610e3","5dd31760fb7d41000c6610e3_20240207","","","","3","1","1285",""
"2621","0","html-button-response","192","903441","0.0-192.0","5dd31760fb7d41000c6610e3","5dd31760fb7d41000c6610e3_20240207","","","","2","1","935",""
"2773","0","html-button-response","193","906715","0.0-193.0","5dd31760fb7d41000c6610e3","5dd31760fb7d41000c6610e3_20240207","","","","5","5","1853",""
"4006","0","html-button-response","194","911223","0.0-194.0","5dd31760fb7d41000c6610e3","5dd31760fb7d41000c6610e3_20240207","","","","9","2","252",""
"2890","0","html-button-response","195","914615","0.0-195.0","5dd31760fb7d41000c6610e3","5dd31760fb7d41000c6610e3_20240207","","","","6","1","507",""
"2274","0","html-button-response","196","917391","0.0-196.0","5dd31760fb7d41000c6610e3","5dd31760fb7d41000c6610e3_20240207","","","","1","1","518",""
"4217","0","html-button-response","197","922109","0.0-197.0","5dd31760fb7d41000c6610e3","5dd31760fb7d41000c6610e3_20240207","","","","9","3","730",""
"2884","0","html-button-response","198","925495","0.0-198.0","5dd31760fb7d41000c6610e3","5dd31760fb7d41000c6610e3_20240207","","","","5","5","1291",""
"3004","0","html-button-response","199","929001","0.0-199.0","5dd31760fb7d41000c6610e3","5dd31760fb7d41000c6610e3_20240207","","","","9","2","172",""
"2231","0","html-button-response","200","931734","0.0-200.0","5dd31760fb7d41000c6610e3","5dd31760fb7d41000c6610e3_20240207","","","","9","2","235",""
"2590","0","html-button-response","201","934826","0.0-201.0","5dd31760fb7d41000c6610e3","5dd31760fb7d41000c6610e3_20240207","","","","9","5","876",""
"3097","0","html-button-response","202","938424","0.0-202.0","5dd31760fb7d41000c6610e3","5dd31760fb7d41000c6610e3_20240207","","","","7","1","596",""
"3491","0","html-button-response","203","942418","0.0-203.0","5dd31760fb7d41000c6610e3","5dd31760fb7d41000c6610e3_20240207","","","","9","2","40",""
"3007","0","html-button-response","204","945927","0.0-204.0","5dd31760fb7d41000c6610e3","5dd31760fb7d41000c6610e3_20240207","","","","9","6","1041",""
"3230","0","html-button-response","205","949659","0.0-205.0","5dd31760fb7d41000c6610e3","5dd31760fb7d41000c6610e3_20240207","","","","1","1","1389",""
"2381","0","html-button-response","206","952542","0.0-206.0","5dd31760fb7d41000c6610e3","5dd31760fb7d41000c6610e3_20240207","","","","1","1","727",""
"2461","0","html-button-response","207","955504","0.0-207.0","5dd31760fb7d41000c6610e3","5dd31760fb7d41000c6610e3_20240207","","","","9","2","69",""
"2043","0","html-button-response","208","958050","0.0-208.0","5dd31760fb7d41000c6610e3","5dd31760fb7d41000c6610e3_20240207","","","","5","5","1660",""
"4056","0","html-button-response","209","962608","0.0-209.0","5dd31760fb7d41000c6610e3","5dd31760fb7d41000c6610e3_20240207","","","","8","1","2184",""
"2768","0","html-button-response","210","965878","0.0-210.0","5dd31760fb7d41000c6610e3","5dd31760fb7d41000c6610e3_20240207","","","","5","5","2019",""
"3397","0","html-button-response","211","969776","0.0-211.0","5dd31760fb7d41000c6610e3","5dd31760fb7d41000c6610e3_20240207","","","","9","5","1539",""
"2022","0","html-button-response","212","972300","0.0-212.0","5dd31760fb7d41000c6610e3","5dd31760fb7d41000c6610e3_20240207","","","","5","5","1513",""
"2099","0","html-button-response","213","974900","0.0-213.0","5dd31760fb7d41000c6610e3","5dd31760fb7d41000c6610e3_20240207","","","","5","5","976",""
"3620","0","html-button-response","214","979022","0.0-214.0","5dd31760fb7d41000c6610e3","5dd31760fb7d41000c6610e3_20240207","","","","9","1","604",""
"2441","0","html-button-response","215","981965","0.0-215.0","5dd31760fb7d41000c6610e3","5dd31760fb7d41000c6610e3_20240207","","","","7","1","1481",""
"3279","0","html-button-response","216","985746","0.0-216.0","5dd31760fb7d41000c6610e3","5dd31760fb7d41000c6610e3_20240207","","","","9","5","2109",""
"2601","0","html-button-response","217","988849","0.0-217.0","5dd31760fb7d41000c6610e3","5dd31760fb7d41000c6610e3_20240207","","","","5","5","1108",""
"3233","0","html-button-response","218","992584","0.0-218.0","5dd31760fb7d41000c6610e3","5dd31760fb7d41000c6610e3_20240207","","","","5","1","81",""
"2124","0","html-button-response","219","995210","0.0-219.0","5dd31760fb7d41000c6610e3","5dd31760fb7d41000c6610e3_20240207","","","","1","1","2079",""
"2239","0","html-button-response","220","997951","0.0-220.0","5dd31760fb7d41000c6610e3","5dd31760fb7d41000c6610e3_20240207","","","","5","5","2189",""
"2342","0","html-button-response","221","1000794","0.0-221.0","5dd31760fb7d41000c6610e3","5dd31760fb7d41000c6610e3_20240207","","","","3","1","1791",""
"2064","0","html-button-response","222","1003360","0.0-222.0","5dd31760fb7d41000c6610e3","5dd31760fb7d41000c6610e3_20240207","","","","2","1","779",""
"2522","0","html-button-response","223","1006385","0.0-223.0","5dd31760fb7d41000c6610e3","5dd31760fb7d41000c6610e3_20240207","","","","2","1","158",""
"2893","0","html-button-response","224","1009780","0.0-224.0","5dd31760fb7d41000c6610e3","5dd31760fb7d41000c6610e3_20240207","","","","5","1","970",""
"1202","0","html-button-response","225","1011483","0.0-225.0","5dd31760fb7d41000c6610e3","5dd31760fb7d41000c6610e3_20240207","","","Thank you. You have reached the end. 
                       <br>Click the button below to reveal your compensation.
                        <br><br>","","","","1752,667,2083,1161,2139,248,1458,2053,1371,1084,2194,1820,1821,151,1261,1963,1526,468,1789,736,126,1835,531,487,1425,958,1135,510,48,1118,620,1217,689,1075,2153,1668,715,1290,776,19,511,278,1197,1405,968,261,319,449,63,820,1751,2072,796,342,2151,1618,1483,1696,583,812,141,56,945,1198,1027,129,2150,459,1210,1818,847,1711,1266,703,693,1834,710,562,910,1810,50,1400,1612,872,2101,997,1672,136,568,1058,1729,1311,599,2140,1107,885,18,1619,1129,307,973,2013,1131,2178,1642,94,573,1383,76,1082,1577,1255,1623,1083,1892,1154,1073,1436,1130,49,1168,1441,196,1008,635,503,593,1902,1488,1328,372,1195,1885,442,1338,295,12,127,1743,492,1146,1406,2110,80,34,2147,1207,311,270,1329,986,1010,773,1293,707,1948,844,398,909,1524,1420,1669,1258,1656,260,1776,353,355,837,977,1589,947,1113,1201,1306,190,2074,933,660,479,2129,1147,1059,2045,589,73,1285,935,1853,252,507,518,730,1291,172,235,876,596,40,1041,1389,727,69,1660,2184,2019,1539,1513,976,604,1481,2109,1108,81,2079,2189,1791,779,158,970"
