"rt","response","trial_type","trial_index","time_elapsed","internal_node_id","part_ID","ID_DATE","screen_id","understand_correct","stimulus","arousal","valence","img_id","tested_trial_idx"
"7011","0","html-button-response","0","7013","0.0-0.0","63f77b9ca8439f6e1620c1cd","63f77b9ca8439f6e1620c1cd_20240207","","","","","","",""
"9040","[object Object]","survey-html-form","1","16555","0.0-1.0","63f77b9ca8439f6e1620c1cd","63f77b9ca8439f6e1620c1cd_20240207","prolific_id_page","","","","","",""
"104946","0","html-button-response","2","121503","0.0-2.0","63f77b9ca8439f6e1620c1cd","63f77b9ca8439f6e1620c1cd_20240207","","","","","","",""
"167896","0","html-button-response","3","289915","0.0-3.0-0.0","63f77b9ca8439f6e1620c1cd","63f77b9ca8439f6e1620c1cd_20240207","","true","","","","",""
"1737","0","html-button-response","4","292165","0.0-4.0","63f77b9ca8439f6e1620c1cd","63f77b9ca8439f6e1620c1cd_20240207","","","
<div>
Great! You will now go on to rate the faces.
<br><br>
</div>
","","","",""
"25033","0","html-button-response","5","317711","0.0-5.0","63f77b9ca8439f6e1620c1cd","63f77b9ca8439f6e1620c1cd_20240207","","","","5","9","173",""
"6908","0","html-button-response","6","325135","0.0-6.0","63f77b9ca8439f6e1620c1cd","63f77b9ca8439f6e1620c1cd_20240207","","","","5","1","451",""
"5094","0","html-button-response","7","330735","0.0-7.0","63f77b9ca8439f6e1620c1cd","63f77b9ca8439f6e1620c1cd_20240207","","","","5","5","536",""
"14064","0","html-button-response","8","345305","0.0-8.0","63f77b9ca8439f6e1620c1cd","63f77b9ca8439f6e1620c1cd_20240207","","","","7","1","1206",""
"5587","0","html-button-response","9","351405","0.0-9.0","63f77b9ca8439f6e1620c1cd","63f77b9ca8439f6e1620c1cd_20240207","","","","5","9","1236",""
"2686","0","html-button-response","10","354607","0.0-10.0","63f77b9ca8439f6e1620c1cd","63f77b9ca8439f6e1620c1cd_20240207","","","","5","5","2176",""
"7826","0","html-button-response","11","362935","0.0-11.0","63f77b9ca8439f6e1620c1cd","63f77b9ca8439f6e1620c1cd_20240207","","","","5","1","441",""
"33637","0","html-button-response","12","397089","0.0-12.0","63f77b9ca8439f6e1620c1cd","63f77b9ca8439f6e1620c1cd_20240207","","","","7","3","1191",""
"9137","0","html-button-response","13","406743","0.0-13.0","63f77b9ca8439f6e1620c1cd","63f77b9ca8439f6e1620c1cd_20240207","","","","5","8","1938",""
"7185","0","html-button-response","14","414433","0.0-14.0","63f77b9ca8439f6e1620c1cd","63f77b9ca8439f6e1620c1cd_20240207","","","","8","8","134",""
"3122","0","html-button-response","15","418057","0.0-15.0","63f77b9ca8439f6e1620c1cd","63f77b9ca8439f6e1620c1cd_20240207","","","","5","5","2149",""
"4728","0","html-button-response","16","423291","0.0-16.0","63f77b9ca8439f6e1620c1cd","63f77b9ca8439f6e1620c1cd_20240207","","","","8","1","124",""
"2413","0","html-button-response","17","426213","0.0-17.0","63f77b9ca8439f6e1620c1cd","63f77b9ca8439f6e1620c1cd_20240207","","","","5","5","934",""
"2618","0","html-button-response","18","429337","0.0-18.0","63f77b9ca8439f6e1620c1cd","63f77b9ca8439f6e1620c1cd_20240207","","","","5","5","1165",""
"5348","0","html-button-response","19","435187","0.0-19.0","63f77b9ca8439f6e1620c1cd","63f77b9ca8439f6e1620c1cd_20240207","","","","7","5","750",""
"5023","0","html-button-response","20","440719","0.0-20.0","63f77b9ca8439f6e1620c1cd","63f77b9ca8439f6e1620c1cd_20240207","","","","7","6","1905",""
"6877","0","html-button-response","21","448110","0.0-21.0","63f77b9ca8439f6e1620c1cd","63f77b9ca8439f6e1620c1cd_20240207","","","","7","5","191",""
"3392","0","html-button-response","22","452013","0.0-22.0","63f77b9ca8439f6e1620c1cd","63f77b9ca8439f6e1620c1cd_20240207","","","","7","3","523",""
"7090","0","html-button-response","23","459617","0.0-23.0","63f77b9ca8439f6e1620c1cd","63f77b9ca8439f6e1620c1cd_20240207","","","","3","1","909",""
"2619","0","html-button-response","24","462749","0.0-24.0","63f77b9ca8439f6e1620c1cd","63f77b9ca8439f6e1620c1cd_20240207","","","","5","5","767",""
"2681","0","html-button-response","25","465942","0.0-25.0","63f77b9ca8439f6e1620c1cd","63f77b9ca8439f6e1620c1cd_20240207","","","","5","5","273",""
"3608","0","html-button-response","26","470056","0.0-26.0","63f77b9ca8439f6e1620c1cd","63f77b9ca8439f6e1620c1cd_20240207","","","","4","5","1128",""
"5840","0","html-button-response","27","476404","0.0-27.0","63f77b9ca8439f6e1620c1cd","63f77b9ca8439f6e1620c1cd_20240207","","","","3","3","1007",""
"6947","0","html-button-response","28","483860","0.0-28.0","63f77b9ca8439f6e1620c1cd","63f77b9ca8439f6e1620c1cd_20240207","","","","6","5","739",""
"4897","0","html-button-response","29","489275","0.0-29.0","63f77b9ca8439f6e1620c1cd","63f77b9ca8439f6e1620c1cd_20240207","","","","8","8","1552",""
"7104","0","html-button-response","30","496894","0.0-30.0","63f77b9ca8439f6e1620c1cd","63f77b9ca8439f6e1620c1cd_20240207","","","","5","9","380",""
"8448","0","html-button-response","31","505863","0.0-31.0","63f77b9ca8439f6e1620c1cd","63f77b9ca8439f6e1620c1cd_20240207","","","","7","1","940",""
"3536","0","html-button-response","32","509913","0.0-32.0","63f77b9ca8439f6e1620c1cd","63f77b9ca8439f6e1620c1cd_20240207","","","","7","8","885",""
"3063","0","html-button-response","33","513482","0.0-33.0","63f77b9ca8439f6e1620c1cd","63f77b9ca8439f6e1620c1cd_20240207","","","","5","5","2004",""
"3238","0","html-button-response","34","517236","0.0-34.0","63f77b9ca8439f6e1620c1cd","63f77b9ca8439f6e1620c1cd_20240207","","","","4","4","243",""
"2360","0","html-button-response","35","520105","0.0-35.0","63f77b9ca8439f6e1620c1cd","63f77b9ca8439f6e1620c1cd_20240207","","","","5","5","2198",""
"7731","0","html-button-response","36","528346","0.0-36.0","63f77b9ca8439f6e1620c1cd","63f77b9ca8439f6e1620c1cd_20240207","","","","5","1","1897",""
"2288","0","html-button-response","37","531143","0.0-37.0","63f77b9ca8439f6e1620c1cd","63f77b9ca8439f6e1620c1cd_20240207","","","","4","2","1937",""
"2440","0","html-button-response","38","534089","0.0-38.0","63f77b9ca8439f6e1620c1cd","63f77b9ca8439f6e1620c1cd_20240207","","","","3","2","700",""
"2733","0","html-button-response","39","537337","0.0-39.0","63f77b9ca8439f6e1620c1cd","63f77b9ca8439f6e1620c1cd_20240207","","","","8","8","681",""
"2006","0","html-button-response","40","539853","0.0-40.0","63f77b9ca8439f6e1620c1cd","63f77b9ca8439f6e1620c1cd_20240207","","","","5","5","1278",""
"5697","0","html-button-response","41","546062","0.0-41.0","63f77b9ca8439f6e1620c1cd","63f77b9ca8439f6e1620c1cd_20240207","","","","6","2","347",""
"3899","0","html-button-response","42","550465","0.0-42.0","63f77b9ca8439f6e1620c1cd","63f77b9ca8439f6e1620c1cd_20240207","","","","6","2","1360",""
"3017","0","html-button-response","43","553985","0.0-43.0","63f77b9ca8439f6e1620c1cd","63f77b9ca8439f6e1620c1cd_20240207","","","","7","2","2052",""
"3275","0","html-button-response","44","557765","0.0-44.0","63f77b9ca8439f6e1620c1cd","63f77b9ca8439f6e1620c1cd_20240207","","","","6","3","1256",""
"2814","0","html-button-response","45","561091","0.0-45.0","63f77b9ca8439f6e1620c1cd","63f77b9ca8439f6e1620c1cd_20240207","","","","7","2","2089",""
"2271","0","html-button-response","46","563878","0.0-46.0","63f77b9ca8439f6e1620c1cd","63f77b9ca8439f6e1620c1cd_20240207","","","","5","5","1268",""
"2265","0","html-button-response","47","566653","0.0-47.0","63f77b9ca8439f6e1620c1cd","63f77b9ca8439f6e1620c1cd_20240207","","","","5","5","1099",""
"3624","0","html-button-response","48","570789","0.0-48.0","63f77b9ca8439f6e1620c1cd","63f77b9ca8439f6e1620c1cd_20240207","","","","7","2","193",""
"3488","0","html-button-response","49","574779","0.0-49.0","63f77b9ca8439f6e1620c1cd","63f77b9ca8439f6e1620c1cd_20240207","","","","6","7","2060",""
"4903","0","html-button-response","50","580192","0.0-50.0","63f77b9ca8439f6e1620c1cd","63f77b9ca8439f6e1620c1cd_20240207","","","","8","8","1525",""
"4841","0","html-button-response","51","585537","0.0-51.0","63f77b9ca8439f6e1620c1cd","63f77b9ca8439f6e1620c1cd_20240207","","","","7","2","879",""
"3764","0","html-button-response","52","589815","0.0-52.0","63f77b9ca8439f6e1620c1cd","63f77b9ca8439f6e1620c1cd_20240207","","","","7","2","533",""
"3233","0","html-button-response","53","593561","0.0-53.0","63f77b9ca8439f6e1620c1cd","63f77b9ca8439f6e1620c1cd_20240207","","","","7","7","1385",""
"3055","0","html-button-response","54","597130","0.0-54.0","63f77b9ca8439f6e1620c1cd","63f77b9ca8439f6e1620c1cd_20240207","","","","5","2","1765",""
"2508","0","html-button-response","55","600153","0.0-55.0","63f77b9ca8439f6e1620c1cd","63f77b9ca8439f6e1620c1cd_20240207","","","","8","8","2048",""
"4687","0","html-button-response","56","605342","0.0-56.0","63f77b9ca8439f6e1620c1cd","63f77b9ca8439f6e1620c1cd_20240207","","","","5","2","2114",""
"2385","0","html-button-response","57","608240","0.0-57.0","63f77b9ca8439f6e1620c1cd","63f77b9ca8439f6e1620c1cd_20240207","","","","8","8","1942",""
"5081","0","html-button-response","58","613827","0.0-58.0","63f77b9ca8439f6e1620c1cd","63f77b9ca8439f6e1620c1cd_20240207","","","","7","7","1082",""
"2905","0","html-button-response","59","617239","0.0-59.0","63f77b9ca8439f6e1620c1cd","63f77b9ca8439f6e1620c1cd_20240207","","","","6","2","556",""
"2560","0","html-button-response","60","620308","0.0-60.0","63f77b9ca8439f6e1620c1cd","63f77b9ca8439f6e1620c1cd_20240207","","","","6","2","853",""
"3789","0","html-button-response","61","624603","0.0-61.0","63f77b9ca8439f6e1620c1cd","63f77b9ca8439f6e1620c1cd_20240207","","","","9","7","708",""
"10898","0","html-button-response","62","636002","0.0-62.0","63f77b9ca8439f6e1620c1cd","63f77b9ca8439f6e1620c1cd_20240207","","","","5","1","1182",""
"11080","0","html-button-response","63","647596","0.0-63.0","63f77b9ca8439f6e1620c1cd","63f77b9ca8439f6e1620c1cd_20240207","","","","9","8","1536",""
"3453","0","html-button-response","64","651555","0.0-64.0","63f77b9ca8439f6e1620c1cd","63f77b9ca8439f6e1620c1cd_20240207","","","","5","5","965",""
"2818","0","html-button-response","65","654882","0.0-65.0","63f77b9ca8439f6e1620c1cd","63f77b9ca8439f6e1620c1cd_20240207","","","","7","2","1546",""
"2797","0","html-button-response","66","658187","0.0-66.0","63f77b9ca8439f6e1620c1cd","63f77b9ca8439f6e1620c1cd_20240207","","","","7","2","2050",""
"3899","0","html-button-response","67","662597","0.0-67.0","63f77b9ca8439f6e1620c1cd","63f77b9ca8439f6e1620c1cd_20240207","","","","5","1","624",""
"5526","0","html-button-response","68","668629","0.0-68.0","63f77b9ca8439f6e1620c1cd","63f77b9ca8439f6e1620c1cd_20240207","","","","9","5","588",""
"3041","0","html-button-response","69","672173","0.0-69.0","63f77b9ca8439f6e1620c1cd","63f77b9ca8439f6e1620c1cd_20240207","","","","9","4","263",""
"2874","0","html-button-response","70","675554","0.0-70.0","63f77b9ca8439f6e1620c1cd","63f77b9ca8439f6e1620c1cd_20240207","","","","9","4","92",""
"2481","0","html-button-response","71","678538","0.0-71.0","63f77b9ca8439f6e1620c1cd","63f77b9ca8439f6e1620c1cd_20240207","","","","5","5","1857",""
"2831","0","html-button-response","72","681883","0.0-72.0","63f77b9ca8439f6e1620c1cd","63f77b9ca8439f6e1620c1cd_20240207","","","","5","5","1305",""
"2569","0","html-button-response","73","684960","0.0-73.0","63f77b9ca8439f6e1620c1cd","63f77b9ca8439f6e1620c1cd_20240207","","","","5","4","943",""
"2530","0","html-button-response","74","687998","0.0-74.0","63f77b9ca8439f6e1620c1cd","63f77b9ca8439f6e1620c1cd_20240207","","","","8","7","1887",""
"3793","0","html-button-response","75","692293","0.0-75.0","63f77b9ca8439f6e1620c1cd","63f77b9ca8439f6e1620c1cd_20240207","","","","9","1","97",""
"3846","0","html-button-response","76","696641","0.0-76.0","63f77b9ca8439f6e1620c1cd","63f77b9ca8439f6e1620c1cd_20240207","","","","5","1","506",""
"2491","0","html-button-response","77","699649","0.0-77.0","63f77b9ca8439f6e1620c1cd","63f77b9ca8439f6e1620c1cd_20240207","","","","8","7","1925",""
"2645","0","html-button-response","78","702797","0.0-78.0","63f77b9ca8439f6e1620c1cd","63f77b9ca8439f6e1620c1cd_20240207","","","","8","7","1423",""
"4330","0","html-button-response","79","707637","0.0-79.0","63f77b9ca8439f6e1620c1cd","63f77b9ca8439f6e1620c1cd_20240207","","","","8","5","71",""
"2254","0","html-button-response","80","710403","0.0-80.0","63f77b9ca8439f6e1620c1cd","63f77b9ca8439f6e1620c1cd_20240207","","","","9","8","1017",""
"2996","0","html-button-response","81","713908","0.0-81.0","63f77b9ca8439f6e1620c1cd","63f77b9ca8439f6e1620c1cd_20240207","","","","6","2","517",""
"3323","0","html-button-response","82","717734","0.0-82.0","63f77b9ca8439f6e1620c1cd","63f77b9ca8439f6e1620c1cd_20240207","","","","3","1","502",""
"3260","0","html-button-response","83","721507","0.0-83.0","63f77b9ca8439f6e1620c1cd","63f77b9ca8439f6e1620c1cd_20240207","","","","6","3","1386",""
"4976","0","html-button-response","84","726985","0.0-84.0","63f77b9ca8439f6e1620c1cd","63f77b9ca8439f6e1620c1cd_20240207","","","","9","3","430",""
"3609","0","html-button-response","85","731099","0.0-85.0","63f77b9ca8439f6e1620c1cd","63f77b9ca8439f6e1620c1cd_20240207","","","","3","2","1164",""
"2758","0","html-button-response","86","734365","0.0-86.0","63f77b9ca8439f6e1620c1cd","63f77b9ca8439f6e1620c1cd_20240207","","","","5","2","221",""
"2797","0","html-button-response","87","737676","0.0-87.0","63f77b9ca8439f6e1620c1cd","63f77b9ca8439f6e1620c1cd_20240207","","","","5","2","330",""
"2073","0","html-button-response","88","740254","0.0-88.0","63f77b9ca8439f6e1620c1cd","63f77b9ca8439f6e1620c1cd_20240207","","","","5","2","975",""
"2199","0","html-button-response","89","742961","0.0-89.0","63f77b9ca8439f6e1620c1cd","63f77b9ca8439f6e1620c1cd_20240207","","","","5","2","1845",""
"2369","0","html-button-response","90","745842","0.0-90.0","63f77b9ca8439f6e1620c1cd","63f77b9ca8439f6e1620c1cd_20240207","","","","5","2","414",""
"10531","0","html-button-response","91","756886","0.0-91.0","63f77b9ca8439f6e1620c1cd","63f77b9ca8439f6e1620c1cd_20240207","","","","8","1","1025",""
"2475","0","html-button-response","92","759872","0.0-92.0","63f77b9ca8439f6e1620c1cd","63f77b9ca8439f6e1620c1cd_20240207","","","","5","5","2150",""
"2159","0","html-button-response","93","762536","0.0-93.0","63f77b9ca8439f6e1620c1cd","63f77b9ca8439f6e1620c1cd_20240207","","","","8","8","1393",""
"7341","0","html-button-response","94","770378","0.0-94.0","63f77b9ca8439f6e1620c1cd","63f77b9ca8439f6e1620c1cd_20240207","","","","4","1","167",""
"3757","0","html-button-response","95","774648","0.0-95.0","63f77b9ca8439f6e1620c1cd","63f77b9ca8439f6e1620c1cd_20240207","","","","7","2","852",""
"2589","0","html-button-response","96","777750","0.0-96.0","63f77b9ca8439f6e1620c1cd","63f77b9ca8439f6e1620c1cd_20240207","","","","7","2","868",""
"2589","0","html-button-response","97","780843","0.0-97.0","63f77b9ca8439f6e1620c1cd","63f77b9ca8439f6e1620c1cd_20240207","","","","5","5","2010",""
"2402","0","html-button-response","98","783750","0.0-98.0","63f77b9ca8439f6e1620c1cd","63f77b9ca8439f6e1620c1cd_20240207","","","","5","5","1497",""
"3731","0","html-button-response","99","787990","0.0-99.0","63f77b9ca8439f6e1620c1cd","63f77b9ca8439f6e1620c1cd_20240207","","","","9","1","163",""
"3423","0","html-button-response","100","791918","0.0-100.0","63f77b9ca8439f6e1620c1cd","63f77b9ca8439f6e1620c1cd_20240207","","","","5","5","2197",""
"3190","0","html-button-response","101","795626","0.0-101.0","63f77b9ca8439f6e1620c1cd","63f77b9ca8439f6e1620c1cd_20240207","","","","5","4","1456",""
"3835","0","html-button-response","102","799974","0.0-102.0","63f77b9ca8439f6e1620c1cd","63f77b9ca8439f6e1620c1cd_20240207","","","","5","2","493",""
"2703","0","html-button-response","103","803194","0.0-103.0","63f77b9ca8439f6e1620c1cd","63f77b9ca8439f6e1620c1cd_20240207","","","","5","2","488",""
"2071","0","html-button-response","104","805780","0.0-104.0","63f77b9ca8439f6e1620c1cd","63f77b9ca8439f6e1620c1cd_20240207","","","","5","2","817",""
"2899","0","html-button-response","105","809186","0.0-105.0","63f77b9ca8439f6e1620c1cd","63f77b9ca8439f6e1620c1cd_20240207","","","","7","6","1614",""
"3019","0","html-button-response","106","812708","0.0-106.0","63f77b9ca8439f6e1620c1cd","63f77b9ca8439f6e1620c1cd_20240207","","","","9","5","526",""
"6265","0","html-button-response","107","819490","0.0-107.0","63f77b9ca8439f6e1620c1cd","63f77b9ca8439f6e1620c1cd_20240207","","","","7","3","1218",""
"2592","0","html-button-response","108","822592","0.0-108.0","63f77b9ca8439f6e1620c1cd","63f77b9ca8439f6e1620c1cd_20240207","","","","7","3","25",""
"2316","0","html-button-response","109","825412","0.0-109.0","63f77b9ca8439f6e1620c1cd","63f77b9ca8439f6e1620c1cd_20240207","","","","7","3","361",""
"2597","0","html-button-response","110","828514","0.0-110.0","63f77b9ca8439f6e1620c1cd","63f77b9ca8439f6e1620c1cd_20240207","","","","9","8","2083",""
"5387","0","html-button-response","111","834414","0.0-111.0","63f77b9ca8439f6e1620c1cd","63f77b9ca8439f6e1620c1cd_20240207","","","","6","4","512",""
"2271","0","html-button-response","112","837188","0.0-112.0","63f77b9ca8439f6e1620c1cd","63f77b9ca8439f6e1620c1cd_20240207","","","","5","5","1979",""
"2111","0","html-button-response","113","839800","0.0-113.0","63f77b9ca8439f6e1620c1cd","63f77b9ca8439f6e1620c1cd_20240207","","","","5","5","1334",""
"3115","0","html-button-response","114","843431","0.0-114.0","63f77b9ca8439f6e1620c1cd","63f77b9ca8439f6e1620c1cd_20240207","","","","7","3","516",""
"2672","0","html-button-response","115","846612","0.0-115.0","63f77b9ca8439f6e1620c1cd","63f77b9ca8439f6e1620c1cd_20240207","","","","7","4","433",""
"2136","0","html-button-response","116","849254","0.0-116.0","63f77b9ca8439f6e1620c1cd","63f77b9ca8439f6e1620c1cd_20240207","","","","5","5","1512",""
"2203","0","html-button-response","117","851960","0.0-117.0","63f77b9ca8439f6e1620c1cd","63f77b9ca8439f6e1620c1cd_20240207","","","","5","5","1496",""
"2508","0","html-button-response","118","854976","0.0-118.0","63f77b9ca8439f6e1620c1cd","63f77b9ca8439f6e1620c1cd_20240207","","","","5","4","1959",""
"2427","0","html-button-response","119","857905","0.0-119.0","63f77b9ca8439f6e1620c1cd","63f77b9ca8439f6e1620c1cd_20240207","","","","5","3","1599",""
"2422","0","html-button-response","120","860844","0.0-120.0","63f77b9ca8439f6e1620c1cd","63f77b9ca8439f6e1620c1cd_20240207","","","","7","3","696",""
"3642","0","html-button-response","121","864998","0.0-121.0","63f77b9ca8439f6e1620c1cd","63f77b9ca8439f6e1620c1cd_20240207","","","","4","4","805",""
"3231","0","html-button-response","122","868746","0.0-122.0","63f77b9ca8439f6e1620c1cd","63f77b9ca8439f6e1620c1cd_20240207","","","","5","2","785",""
"2399","0","html-button-response","123","871662","0.0-123.0","63f77b9ca8439f6e1620c1cd","63f77b9ca8439f6e1620c1cd_20240207","","","","7","2","364",""
"2363","0","html-button-response","124","874528","0.0-124.0","63f77b9ca8439f6e1620c1cd","63f77b9ca8439f6e1620c1cd_20240207","","","","5","5","1425",""
"2823","0","html-button-response","125","877856","0.0-125.0","63f77b9ca8439f6e1620c1cd","63f77b9ca8439f6e1620c1cd_20240207","","","","9","5","176",""
"2534","0","html-button-response","126","880903","0.0-126.0","63f77b9ca8439f6e1620c1cd","63f77b9ca8439f6e1620c1cd_20240207","","","","9","5","615",""
"3607","0","html-button-response","127","885018","0.0-127.0","63f77b9ca8439f6e1620c1cd","63f77b9ca8439f6e1620c1cd_20240207","","","","8","8","1756",""
"2051","0","html-button-response","128","887582","0.0-128.0","63f77b9ca8439f6e1620c1cd","63f77b9ca8439f6e1620c1cd_20240207","","","","5","5","1102",""
"3660","0","html-button-response","129","891752","0.0-129.0","63f77b9ca8439f6e1620c1cd","63f77b9ca8439f6e1620c1cd_20240207","","","","5","2","1248",""
"2421","0","html-button-response","130","894682","0.0-130.0","63f77b9ca8439f6e1620c1cd","63f77b9ca8439f6e1620c1cd_20240207","","","","5","5","1991",""
"4224","0","html-button-response","131","899412","0.0-131.0","63f77b9ca8439f6e1620c1cd","63f77b9ca8439f6e1620c1cd_20240207","","","","5","2","498",""
"2430","0","html-button-response","132","902358","0.0-132.0","63f77b9ca8439f6e1620c1cd","63f77b9ca8439f6e1620c1cd_20240207","","","","5","2","496",""
"19649","0","html-button-response","133","922518","0.0-133.0","63f77b9ca8439f6e1620c1cd","63f77b9ca8439f6e1620c1cd_20240207","","","","9","4","68",""
"2409","0","html-button-response","134","925431","0.0-134.0","63f77b9ca8439f6e1620c1cd","63f77b9ca8439f6e1620c1cd_20240207","","","","8","7","1773",""
"3753","0","html-button-response","135","929702","0.0-135.0","63f77b9ca8439f6e1620c1cd","63f77b9ca8439f6e1620c1cd_20240207","","","","9","5","729",""
"1937","0","html-button-response","136","932150","0.0-136.0","63f77b9ca8439f6e1620c1cd","63f77b9ca8439f6e1620c1cd_20240207","","","","5","5","1474",""
"3406","0","html-button-response","137","936062","0.0-137.0","63f77b9ca8439f6e1620c1cd","63f77b9ca8439f6e1620c1cd_20240207","","","","5","2","1053",""
"2023","0","html-button-response","138","938602","0.0-138.0","63f77b9ca8439f6e1620c1cd","63f77b9ca8439f6e1620c1cd_20240207","","","","5","3","2200",""
"14484","0","html-button-response","139","953602","0.0-139.0","63f77b9ca8439f6e1620c1cd","63f77b9ca8439f6e1620c1cd_20240207","","","","7","3","712",""
"2817","0","html-button-response","140","956922","0.0-140.0","63f77b9ca8439f6e1620c1cd","63f77b9ca8439f6e1620c1cd_20240207","","","","7","3","374",""
"2598","0","html-button-response","141","960030","0.0-141.0","63f77b9ca8439f6e1620c1cd","63f77b9ca8439f6e1620c1cd_20240207","","","","9","8","1903",""
"2788","0","html-button-response","142","963320","0.0-142.0","63f77b9ca8439f6e1620c1cd","63f77b9ca8439f6e1620c1cd_20240207","","","","5","4","2190",""
"5002","0","html-button-response","143","968828","0.0-143.0","63f77b9ca8439f6e1620c1cd","63f77b9ca8439f6e1620c1cd_20240207","","","","4","1","442",""
"2276","0","html-button-response","144","971610","0.0-144.0","63f77b9ca8439f6e1620c1cd","63f77b9ca8439f6e1620c1cd_20240207","","","","6","1","1738",""
"2403","0","html-button-response","145","974526","0.0-145.0","63f77b9ca8439f6e1620c1cd","63f77b9ca8439f6e1620c1cd_20240207","","","","5","2","1324",""
"2085","0","html-button-response","146","977128","0.0-146.0","63f77b9ca8439f6e1620c1cd","63f77b9ca8439f6e1620c1cd_20240207","","","","6","3","449",""
"2055","0","html-button-response","147","979700","0.0-147.0","63f77b9ca8439f6e1620c1cd","63f77b9ca8439f6e1620c1cd_20240207","","","","5","5","992",""
"4005","0","html-button-response","148","984212","0.0-148.0","63f77b9ca8439f6e1620c1cd","63f77b9ca8439f6e1620c1cd_20240207","","","","4","2","1949",""
"4922","0","html-button-response","149","989644","0.0-149.0","63f77b9ca8439f6e1620c1cd","63f77b9ca8439f6e1620c1cd_20240207","","","","8","3","94",""
"2102","0","html-button-response","150","992262","0.0-150.0","63f77b9ca8439f6e1620c1cd","63f77b9ca8439f6e1620c1cd_20240207","","","","8","3","900",""
"2303","0","html-button-response","151","995082","0.0-151.0","63f77b9ca8439f6e1620c1cd","63f77b9ca8439f6e1620c1cd_20240207","","","","8","3","576",""
"3108","0","html-button-response","152","998706","0.0-152.0","63f77b9ca8439f6e1620c1cd","63f77b9ca8439f6e1620c1cd_20240207","","","","7","4","482",""
"2386","0","html-button-response","153","1001604","0.0-153.0","63f77b9ca8439f6e1620c1cd","63f77b9ca8439f6e1620c1cd_20240207","","","","4","3","1105",""
"2160","0","html-button-response","154","1004270","0.0-154.0","63f77b9ca8439f6e1620c1cd","63f77b9ca8439f6e1620c1cd_20240207","","","","4","3","1630",""
"2405","0","html-button-response","155","1007184","0.0-155.0","63f77b9ca8439f6e1620c1cd","63f77b9ca8439f6e1620c1cd_20240207","","","","7","3","1376",""
"2557","0","html-button-response","156","1010256","0.0-156.0","63f77b9ca8439f6e1620c1cd","63f77b9ca8439f6e1620c1cd_20240207","","","","4","4","1637",""
"2988","0","html-button-response","157","1013746","0.0-157.0","63f77b9ca8439f6e1620c1cd","63f77b9ca8439f6e1620c1cd_20240207","","","","7","3","206",""
"2574","0","html-button-response","158","1016834","0.0-158.0","63f77b9ca8439f6e1620c1cd","63f77b9ca8439f6e1620c1cd_20240207","","","","4","5","2021",""
"2098","0","html-button-response","159","1019444","0.0-159.0","63f77b9ca8439f6e1620c1cd","63f77b9ca8439f6e1620c1cd_20240207","","","","4","5","1821",""
"3517","0","html-button-response","160","1023482","0.0-160.0","63f77b9ca8439f6e1620c1cd","63f77b9ca8439f6e1620c1cd_20240207","","","","8","5","7",""
"2733","0","html-button-response","161","1026732","0.0-161.0","63f77b9ca8439f6e1620c1cd","63f77b9ca8439f6e1620c1cd_20240207","","","","4","5","1328",""
"34091","0","html-button-response","162","1061332","0.0-162.0","63f77b9ca8439f6e1620c1cd","63f77b9ca8439f6e1620c1cd_20240207","","","","8","5","446",""
"2872","0","html-button-response","163","1064714","0.0-163.0","63f77b9ca8439f6e1620c1cd","63f77b9ca8439f6e1620c1cd_20240207","","","","4","5","2183",""
"4571","0","html-button-response","164","1069788","0.0-164.0","63f77b9ca8439f6e1620c1cd","63f77b9ca8439f6e1620c1cd_20240207","","","","4","1","635",""
"2094","0","html-button-response","165","1072398","0.0-165.0","63f77b9ca8439f6e1620c1cd","63f77b9ca8439f6e1620c1cd_20240207","","","","4","1","1272",""
"2354","0","html-button-response","166","1075258","0.0-166.0","63f77b9ca8439f6e1620c1cd","63f77b9ca8439f6e1620c1cd_20240207","","","","5","5","1315",""
"2043","0","html-button-response","167","1077808","0.0-167.0","63f77b9ca8439f6e1620c1cd","63f77b9ca8439f6e1620c1cd_20240207","","","","6","3","278",""
"2069","0","html-button-response","168","1080388","0.0-168.0","63f77b9ca8439f6e1620c1cd","63f77b9ca8439f6e1620c1cd_20240207","","","","5","5","2168",""
"3293","0","html-button-response","169","1084190","0.0-169.0","63f77b9ca8439f6e1620c1cd","63f77b9ca8439f6e1620c1cd_20240207","","","","4","1","283",""
"2034","0","html-button-response","170","1086740","0.0-170.0","63f77b9ca8439f6e1620c1cd","63f77b9ca8439f6e1620c1cd_20240207","","","","5","2","1855",""
"2911","0","html-button-response","171","1090154","0.0-171.0","63f77b9ca8439f6e1620c1cd","63f77b9ca8439f6e1620c1cd_20240207","","","","5","3","2119",""
"4684","0","html-button-response","172","1095352","0.0-172.0","63f77b9ca8439f6e1620c1cd","63f77b9ca8439f6e1620c1cd_20240207","","","","6","2","309",""
"3126","0","html-button-response","173","1098984","0.0-173.0","63f77b9ca8439f6e1620c1cd","63f77b9ca8439f6e1620c1cd_20240207","","","","7","5","851",""
"4520","0","html-button-response","174","1104010","0.0-174.0","63f77b9ca8439f6e1620c1cd","63f77b9ca8439f6e1620c1cd_20240207","","","","8","8","2108",""
"2537","0","html-button-response","175","1107066","0.0-175.0","63f77b9ca8439f6e1620c1cd","63f77b9ca8439f6e1620c1cd_20240207","","","","5","5","1667",""
"2694","0","html-button-response","176","1110268","0.0-176.0","63f77b9ca8439f6e1620c1cd","63f77b9ca8439f6e1620c1cd_20240207","","","","7","3","106",""
"2495","0","html-button-response","177","1113270","0.0-177.0","63f77b9ca8439f6e1620c1cd","63f77b9ca8439f6e1620c1cd_20240207","","","","7","3","3",""
"26423","0","html-button-response","178","1140196","0.0-178.0","63f77b9ca8439f6e1620c1cd","63f77b9ca8439f6e1620c1cd_20240207","","","","6","2","715",""
"3469","0","html-button-response","179","1144180","0.0-179.0","63f77b9ca8439f6e1620c1cd","63f77b9ca8439f6e1620c1cd_20240207","","","","9","5","188",""
"2450","0","html-button-response","180","1147142","0.0-180.0","63f77b9ca8439f6e1620c1cd","63f77b9ca8439f6e1620c1cd_20240207","","","","4","4","1755",""
"3093","0","html-button-response","181","1150750","0.0-181.0","63f77b9ca8439f6e1620c1cd","63f77b9ca8439f6e1620c1cd_20240207","","","","4","1","296",""
"2109","0","html-button-response","182","1153367","0.0-182.0","63f77b9ca8439f6e1620c1cd","63f77b9ca8439f6e1620c1cd_20240207","","","","5","3","1518",""
"2146","0","html-button-response","183","1156026","0.0-183.0","63f77b9ca8439f6e1620c1cd","63f77b9ca8439f6e1620c1cd_20240207","","","","5","3","1303",""
"12343","0","html-button-response","184","1168872","0.0-184.0","63f77b9ca8439f6e1620c1cd","63f77b9ca8439f6e1620c1cd_20240207","","","","6","2","855",""
"2681","0","html-button-response","185","1172066","0.0-185.0","63f77b9ca8439f6e1620c1cd","63f77b9ca8439f6e1620c1cd_20240207","","","","8","8","1563",""
"3622","0","html-button-response","186","1176196","0.0-186.0","63f77b9ca8439f6e1620c1cd","63f77b9ca8439f6e1620c1cd_20240207","","","","7","6","1433",""
"2407","0","html-button-response","187","1179120","0.0-187.0","63f77b9ca8439f6e1620c1cd","63f77b9ca8439f6e1620c1cd_20240207","","","","5","5","1958",""
"3699","0","html-button-response","188","1183320","0.0-188.0","63f77b9ca8439f6e1620c1cd","63f77b9ca8439f6e1620c1cd_20240207","","","","6","5","2160",""
"4404","0","html-button-response","189","1188238","0.0-189.0","63f77b9ca8439f6e1620c1cd","63f77b9ca8439f6e1620c1cd_20240207","","","","7","1","169",""
"12079","0","html-button-response","190","1200824","0.0-190.0","63f77b9ca8439f6e1620c1cd","63f77b9ca8439f6e1620c1cd_20240207","","","","9","3","144",""
"3500","0","html-button-response","191","1204830","0.0-191.0","63f77b9ca8439f6e1620c1cd","63f77b9ca8439f6e1620c1cd_20240207","","","","5","2","1123",""
"3554","0","html-button-response","192","1208890","0.0-192.0","63f77b9ca8439f6e1620c1cd","63f77b9ca8439f6e1620c1cd_20240207","","","","7","6","1358",""
"2538","0","html-button-response","193","1211938","0.0-193.0","63f77b9ca8439f6e1620c1cd","63f77b9ca8439f6e1620c1cd_20240207","","","","4","2","269",""
"2482","0","html-button-response","194","1214930","0.0-194.0","63f77b9ca8439f6e1620c1cd","63f77b9ca8439f6e1620c1cd_20240207","","","","5","5","1967",""
"2152","0","html-button-response","195","1217588","0.0-195.0","63f77b9ca8439f6e1620c1cd","63f77b9ca8439f6e1620c1cd_20240207","","","","5","5","1517",""
"2646","0","html-button-response","196","1220744","0.0-196.0","63f77b9ca8439f6e1620c1cd","63f77b9ca8439f6e1620c1cd_20240207","","","","4","3","803",""
"4296","0","html-button-response","197","1225544","0.0-197.0","63f77b9ca8439f6e1620c1cd","63f77b9ca8439f6e1620c1cd_20240207","","","","8","4","240",""
"2417","0","html-button-response","198","1228476","0.0-198.0","63f77b9ca8439f6e1620c1cd","63f77b9ca8439f6e1620c1cd_20240207","","","","4","3","666",""
"4138","0","html-button-response","199","1233128","0.0-199.0","63f77b9ca8439f6e1620c1cd","63f77b9ca8439f6e1620c1cd_20240207","","","","7","4","578",""
"19217","0","html-button-response","200","1252856","0.0-200.0","63f77b9ca8439f6e1620c1cd","63f77b9ca8439f6e1620c1cd_20240207","","","","4","1","476",""
"4008","0","html-button-response","201","1257377","0.0-201.0","63f77b9ca8439f6e1620c1cd","63f77b9ca8439f6e1620c1cd_20240207","","","","9","3","515",""
"2168","0","html-button-response","202","1260050","0.0-202.0","63f77b9ca8439f6e1620c1cd","63f77b9ca8439f6e1620c1cd_20240207","","","","5","5","1981",""
"2826","0","html-button-response","203","1263384","0.0-203.0","63f77b9ca8439f6e1620c1cd","63f77b9ca8439f6e1620c1cd_20240207","","","","9","8","1184",""
"3164","0","html-button-response","204","1267064","0.0-204.0","63f77b9ca8439f6e1620c1cd","63f77b9ca8439f6e1620c1cd_20240207","","","","9","5","196",""
"3894","0","html-button-response","205","1271460","0.0-205.0","63f77b9ca8439f6e1620c1cd","63f77b9ca8439f6e1620c1cd_20240207","","","","5","5","1812",""
"4214","0","html-button-response","206","1276190","0.0-206.0","63f77b9ca8439f6e1620c1cd","63f77b9ca8439f6e1620c1cd_20240207","","","","5","5","1509",""
"2385","0","html-button-response","207","1279090","0.0-207.0","63f77b9ca8439f6e1620c1cd","63f77b9ca8439f6e1620c1cd_20240207","","","","4","4","2199",""
"3679","0","html-button-response","208","1283274","0.0-208.0","63f77b9ca8439f6e1620c1cd","63f77b9ca8439f6e1620c1cd_20240207","","","","8","4","434",""
"7843","0","html-button-response","209","1291624","0.0-209.0","63f77b9ca8439f6e1620c1cd","63f77b9ca8439f6e1620c1cd_20240207","","","","9","5","27",""
"2341","0","html-button-response","210","1294476","0.0-210.0","63f77b9ca8439f6e1620c1cd","63f77b9ca8439f6e1620c1cd_20240207","","","","8","5","614",""
"3269","0","html-button-response","211","1298256","0.0-211.0","63f77b9ca8439f6e1620c1cd","63f77b9ca8439f6e1620c1cd_20240207","","","","3","2","2145",""
"3965","0","html-button-response","212","1302722","0.0-212.0","63f77b9ca8439f6e1620c1cd","63f77b9ca8439f6e1620c1cd_20240207","","","","4","2","1307",""
"2511","0","html-button-response","213","1305745","0.0-213.0","63f77b9ca8439f6e1620c1cd","63f77b9ca8439f6e1620c1cd_20240207","","","","4","2","1169",""
"18121","0","html-button-response","214","1324384","0.0-214.0","63f77b9ca8439f6e1620c1cd","63f77b9ca8439f6e1620c1cd_20240207","","","","5","3","415",""
"4277","0","html-button-response","215","1329178","0.0-215.0","63f77b9ca8439f6e1620c1cd","63f77b9ca8439f6e1620c1cd_20240207","","","","5","3","1428",""
"2992","0","html-button-response","216","1332678","0.0-216.0","63f77b9ca8439f6e1620c1cd","63f77b9ca8439f6e1620c1cd_20240207","","","","9","8","1538",""
"4802","0","html-button-response","217","1337986","0.0-217.0","63f77b9ca8439f6e1620c1cd","63f77b9ca8439f6e1620c1cd_20240207","","","","3","2","1429",""
"2106","0","html-button-response","218","1340604","0.0-218.0","63f77b9ca8439f6e1620c1cd","63f77b9ca8439f6e1620c1cd_20240207","","","","3","2","1820",""
"5372","0","html-button-response","219","1346480","0.0-219.0","63f77b9ca8439f6e1620c1cd","63f77b9ca8439f6e1620c1cd_20240207","","","","3","1","660",""
"3296","0","html-button-response","220","1350290","0.0-220.0","63f77b9ca8439f6e1620c1cd","63f77b9ca8439f6e1620c1cd_20240207","","","","9","5","224",""
"9914","0","html-button-response","221","1360720","0.0-221.0","63f77b9ca8439f6e1620c1cd","63f77b9ca8439f6e1620c1cd_20240207","","","","7","2","376",""
"5555","0","html-button-response","222","1366784","0.0-222.0","63f77b9ca8439f6e1620c1cd","63f77b9ca8439f6e1620c1cd_20240207","","","","9","5","209",""
"2397","0","html-button-response","223","1369684","0.0-223.0","63f77b9ca8439f6e1620c1cd","63f77b9ca8439f6e1620c1cd_20240207","","","","8","7","1748",""
"2599","0","html-button-response","224","1372792","0.0-224.0","63f77b9ca8439f6e1620c1cd","63f77b9ca8439f6e1620c1cd_20240207","","","","8","5","381",""
"2813","0","html-button-response","225","1376111","0.0-225.0","63f77b9ca8439f6e1620c1cd","63f77b9ca8439f6e1620c1cd_20240207","","","Thank you. You have reached the end. 
                       <br>Click the button below to reveal your compensation.
                        <br><br>","","","","173,451,536,1206,1236,2176,441,1191,1938,134,2149,124,934,1165,750,1905,191,523,909,767,273,1128,1007,739,1552,380,940,885,2004,243,2198,1897,1937,700,681,1278,347,1360,2052,1256,2089,1268,1099,193,2060,1525,879,533,1385,1765,2048,2114,1942,1082,556,853,708,1182,1536,965,1546,2050,624,588,263,92,1857,1305,943,1887,97,506,1925,1423,71,1017,517,502,1386,430,1164,221,330,975,1845,414,1025,2150,1393,167,852,868,2010,1497,163,2197,1456,493,488,817,1614,526,1218,25,361,2083,512,1979,1334,516,433,1512,1496,1959,1599,696,805,785,364,1425,176,615,1756,1102,1248,1991,498,496,68,1773,729,1474,1053,2200,712,374,1903,2190,442,1738,1324,449,992,1949,94,900,576,482,1105,1630,1376,1637,206,2021,1821,7,1328,446,2183,635,1272,1315,278,2168,283,1855,2119,309,851,2108,1667,106,3,715,188,1755,296,1518,1303,855,1563,1433,1958,2160,169,144,1123,1358,269,1967,1517,803,240,666,578,476,515,1981,1184,196,1812,1509,2199,434,27,614,2145,1307,1169,415,1428,1538,1429,1820,660,224,376,209,1748,381"
