"rt","response","trial_type","trial_index","time_elapsed","internal_node_id","part_ID","ID_DATE","screen_id","stimulus","rating","img_id"
"30804","0","html-button-response","0","30821","0.0-0.0","5d5d431608a4b10016285091","5d5d431608a4b10016285091_20240212","","","",""
"11601","[object Object]","survey-html-form","1","42927","0.0-1.0","5d5d431608a4b10016285091","5d5d431608a4b10016285091_20240212","prolific_id_page","","",""
"44877","0","html-button-response","2","87806","0.0-2.0","5d5d431608a4b10016285091","5d5d431608a4b10016285091_20240212","","","",""
"5585","0","html-button-response","3","93899","0.0-3.0","5d5d431608a4b10016285091","5d5d431608a4b10016285091_20240212","","
<div>
Great! You will now go on to rate the faces.
<br><br>
</div>
","",""
"14096","0","html-button-response","4","108504","0.0-4.0","5d5d431608a4b10016285091","5d5d431608a4b10016285091_20240212","","","2","158"
"8969","0","html-button-response","5","117980","0.0-5.0","5d5d431608a4b10016285091","5d5d431608a4b10016285091_20240212","","","1","99"
"6101","0","html-button-response","6","124590","0.0-6.0","5d5d431608a4b10016285091","5d5d431608a4b10016285091_20240212","","","1","54"
"6116","0","html-button-response","7","131213","0.0-7.0","5d5d431608a4b10016285091","5d5d431608a4b10016285091_20240212","","","9","101"
"6636","0","html-button-response","8","138352","0.0-8.0","5d5d431608a4b10016285091","5d5d431608a4b10016285091_20240212","","","2","51"
"5483","0","html-button-response","9","144340","0.0-9.0","5d5d431608a4b10016285091","5d5d431608a4b10016285091_20240212","","","1","49"
"3955","0","html-button-response","10","148803","0.0-10.0","5d5d431608a4b10016285091","5d5d431608a4b10016285091_20240212","","","9","94"
"6261","0","html-button-response","11","155566","0.0-11.0","5d5d431608a4b10016285091","5d5d431608a4b10016285091_20240212","","","5","156"
"4254","0","html-button-response","12","160324","0.0-12.0","5d5d431608a4b10016285091","5d5d431608a4b10016285091_20240212","","","1","181"
"3768","0","html-button-response","13","164597","0.0-13.0","5d5d431608a4b10016285091","5d5d431608a4b10016285091_20240212","","","1","39"
"5875","0","html-button-response","14","170979","0.0-14.0","5d5d431608a4b10016285091","5d5d431608a4b10016285091_20240212","","","6","177"
"4235","0","html-button-response","15","175721","0.0-15.0","5d5d431608a4b10016285091","5d5d431608a4b10016285091_20240212","","","7","170"
"4062","0","html-button-response","16","180291","0.0-16.0","5d5d431608a4b10016285091","5d5d431608a4b10016285091_20240212","","","1","182"
"4020","0","html-button-response","17","184819","0.0-17.0","5d5d431608a4b10016285091","5d5d431608a4b10016285091_20240212","","","3","161"
"3860","0","html-button-response","18","189184","0.0-18.0","5d5d431608a4b10016285091","5d5d431608a4b10016285091_20240212","","","1","46"
"4508","0","html-button-response","19","194200","0.0-19.0","5d5d431608a4b10016285091","5d5d431608a4b10016285091_20240212","","","1","175"
"6942","0","html-button-response","20","201646","0.0-20.0","5d5d431608a4b10016285091","5d5d431608a4b10016285091_20240212","","","7","169"
"4451","0","html-button-response","21","206604","0.0-21.0","5d5d431608a4b10016285091","5d5d431608a4b10016285091_20240212","","","2","172"
"3887","0","html-button-response","22","210997","0.0-22.0","5d5d431608a4b10016285091","5d5d431608a4b10016285091_20240212","","","1","43"
"4305","0","html-button-response","23","215809","0.0-23.0","5d5d431608a4b10016285091","5d5d431608a4b10016285091_20240212","","","1","50"
"7836","0","html-button-response","24","224153","0.0-24.0","5d5d431608a4b10016285091","5d5d431608a4b10016285091_20240212","","","2","183"
"3561","0","html-button-response","25","228219","0.0-25.0","5d5d431608a4b10016285091","5d5d431608a4b10016285091_20240212","","","2","52"
"9095","0","html-button-response","26","237822","0.0-26.0","5d5d431608a4b10016285091","5d5d431608a4b10016285091_20240212","","","8","164"
"3823","0","html-button-response","27","242148","0.0-27.0","5d5d431608a4b10016285091","5d5d431608a4b10016285091_20240212","","","1","162"
"4643","0","html-button-response","28","247294","0.0-28.0","5d5d431608a4b10016285091","5d5d431608a4b10016285091_20240212","","","8","160"
"3903","0","html-button-response","29","251703","0.0-29.0","5d5d431608a4b10016285091","5d5d431608a4b10016285091_20240212","","","1","108"
"4445","0","html-button-response","30","256654","0.0-30.0","5d5d431608a4b10016285091","5d5d431608a4b10016285091_20240212","","","2","41"
"3767","0","html-button-response","31","260928","0.0-31.0","5d5d431608a4b10016285091","5d5d431608a4b10016285091_20240212","","","1","38"
"5755","0","html-button-response","32","267184","0.0-32.0","5d5d431608a4b10016285091","5d5d431608a4b10016285091_20240212","","","9","97"
"4573","0","html-button-response","33","272263","0.0-33.0","5d5d431608a4b10016285091","5d5d431608a4b10016285091_20240212","","","1","47"
"4082","0","html-button-response","34","276850","0.0-34.0","5d5d431608a4b10016285091","5d5d431608a4b10016285091_20240212","","","9","103"
"7553","0","html-button-response","35","284910","0.0-35.0","5d5d431608a4b10016285091","5d5d431608a4b10016285091_20240212","","","5","105"
"4141","0","html-button-response","36","289553","0.0-36.0","5d5d431608a4b10016285091","5d5d431608a4b10016285091_20240212","","","5","167"
"3570","0","html-button-response","37","293625","0.0-37.0","5d5d431608a4b10016285091","5d5d431608a4b10016285091_20240212","","","2","44"
"7250","0","html-button-response","38","301384","0.0-38.0","5d5d431608a4b10016285091","5d5d431608a4b10016285091_20240212","","","5","176"
"4102","0","html-button-response","39","305994","0.0-39.0","5d5d431608a4b10016285091","5d5d431608a4b10016285091_20240212","","","5","166"
"4602","0","html-button-response","40","311100","0.0-40.0","5d5d431608a4b10016285091","5d5d431608a4b10016285091_20240212","","","6","159"
"3510","0","html-button-response","41","315115","0.0-41.0","5d5d431608a4b10016285091","5d5d431608a4b10016285091_20240212","","","2","42"
"4071","0","html-button-response","42","319692","0.0-42.0","5d5d431608a4b10016285091","5d5d431608a4b10016285091_20240212","","","9","96"
"8553","0","html-button-response","43","328750","0.0-43.0","5d5d431608a4b10016285091","5d5d431608a4b10016285091_20240212","","","8","102"
"8492","0","html-button-response","44","337746","0.0-44.0","5d5d431608a4b10016285091","5d5d431608a4b10016285091_20240212","","","4","93"
"3983","0","html-button-response","45","342235","0.0-45.0","5d5d431608a4b10016285091","5d5d431608a4b10016285091_20240212","","","7","157"
"5528","0","html-button-response","46","348268","0.0-46.0","5d5d431608a4b10016285091","5d5d431608a4b10016285091_20240212","","","1","53"
"4882","0","html-button-response","47","353657","0.0-47.0","5d5d431608a4b10016285091","5d5d431608a4b10016285091_20240212","","","2","155"
"5585","0","html-button-response","48","359746","0.0-48.0","5d5d431608a4b10016285091","5d5d431608a4b10016285091_20240212","","","2","91"
"4357","0","html-button-response","49","364608","0.0-49.0","5d5d431608a4b10016285091","5d5d431608a4b10016285091_20240212","","","1","174"
"3691","0","html-button-response","50","368803","0.0-50.0","5d5d431608a4b10016285091","5d5d431608a4b10016285091_20240212","","","1","163"
"4448","0","html-button-response","51","373758","0.0-51.0","5d5d431608a4b10016285091","5d5d431608a4b10016285091_20240212","","","8","104"
"5499","0","html-button-response","52","379763","0.0-52.0","5d5d431608a4b10016285091","5d5d431608a4b10016285091_20240212","","","4","106"
"7325","0","html-button-response","53","387595","0.0-53.0","5d5d431608a4b10016285091","5d5d431608a4b10016285091_20240212","","","1","98"
"4689","0","html-button-response","54","392789","0.0-54.0","5d5d431608a4b10016285091","5d5d431608a4b10016285091_20240212","","","1","48"
"5316","0","html-button-response","55","398613","0.0-55.0","5d5d431608a4b10016285091","5d5d431608a4b10016285091_20240212","","","2","45"
"7707","0","html-button-response","56","406822","0.0-56.0","5d5d431608a4b10016285091","5d5d431608a4b10016285091_20240212","","","8","107"
"4437","0","html-button-response","57","411765","0.0-57.0","5d5d431608a4b10016285091","5d5d431608a4b10016285091_20240212","","","2","40"
"4248","0","html-button-response","58","416516","0.0-58.0","5d5d431608a4b10016285091","5d5d431608a4b10016285091_20240212","","","2","95"
"4000","0","html-button-response","59","421020","0.0-59.0","5d5d431608a4b10016285091","5d5d431608a4b10016285091_20240212","","","2","168"
"5689","0","html-button-response","60","427212","0.0-60.0","5d5d431608a4b10016285091","5d5d431608a4b10016285091_20240212","","","9","100"
"4275","0","html-button-response","61","431994","0.0-61.0","5d5d431608a4b10016285091","5d5d431608a4b10016285091_20240212","","","7","171"
"6192","0","html-button-response","62","438692","0.0-62.0","5d5d431608a4b10016285091","5d5d431608a4b10016285091_20240212","","","6","165"
"3921","0","html-button-response","63","443119","0.0-63.0","5d5d431608a4b10016285091","5d5d431608a4b10016285091_20240212","","","8","92"
"4924","0","html-button-response","64","448545","0.0-64.0","5d5d431608a4b10016285091","5d5d431608a4b10016285091_20240212","","","4","173"
"4458","0","html-button-response","65","453510","0.0-65.0","5d5d431608a4b10016285091","5d5d431608a4b10016285091_20240212","","","1","37"
"6597","0","html-button-response","66","460609","0.0-66.0","5d5d431608a4b10016285091","5d5d431608a4b10016285091_20240212","","","",""
"9357","0","html-button-response","67","470473","0.0-67.0","5d5d431608a4b10016285091","5d5d431608a4b10016285091_20240212","","","7","19"
"4393","0","html-button-response","68","475371","0.0-68.0","5d5d431608a4b10016285091","5d5d431608a4b10016285091_20240212","","","7","32"
"3697","0","html-button-response","69","479576","0.0-69.0","5d5d431608a4b10016285091","5d5d431608a4b10016285091_20240212","","","8","141"
"3413","0","html-button-response","70","483497","0.0-70.0","5d5d431608a4b10016285091","5d5d431608a4b10016285091_20240212","","","8","147"
"4722","0","html-button-response","71","488722","0.0-71.0","5d5d431608a4b10016285091","5d5d431608a4b10016285091_20240212","","","8","137"
"3510","0","html-button-response","72","492738","0.0-72.0","5d5d431608a4b10016285091","5d5d431608a4b10016285091_20240212","","","8","150"
"6101","0","html-button-response","73","499345","0.0-73.0","5d5d431608a4b10016285091","5d5d431608a4b10016285091_20240212","","","5","25"
"8102","0","html-button-response","74","507955","0.0-74.0","5d5d431608a4b10016285091","5d5d431608a4b10016285091_20240212","","","8","85"
"4498","0","html-button-response","75","512960","0.0-75.0","5d5d431608a4b10016285091","5d5d431608a4b10016285091_20240212","","","3","26"
"4796","0","html-button-response","76","518260","0.0-76.0","5d5d431608a4b10016285091","5d5d431608a4b10016285091_20240212","","","1","20"
"4236","0","html-button-response","77","523003","0.0-77.0","5d5d431608a4b10016285091","5d5d431608a4b10016285091_20240212","","","8","149"
"3793","0","html-button-response","78","527299","0.0-78.0","5d5d431608a4b10016285091","5d5d431608a4b10016285091_20240212","","","8","154"
"14422","0","html-button-response","79","542228","0.0-79.0","5d5d431608a4b10016285091","5d5d431608a4b10016285091_20240212","","","9","75"
"5077","0","html-button-response","80","547813","0.0-80.0","5d5d431608a4b10016285091","5d5d431608a4b10016285091_20240212","","","9","84"
"4346","0","html-button-response","81","552666","0.0-81.0","5d5d431608a4b10016285091","5d5d431608a4b10016285091_20240212","","","9","143"
"4110","0","html-button-response","82","557279","0.0-82.0","5d5d431608a4b10016285091","5d5d431608a4b10016285091_20240212","","","9","140"
"3701","0","html-button-response","83","561488","0.0-83.0","5d5d431608a4b10016285091","5d5d431608a4b10016285091_20240212","","","9","74"
"3913","0","html-button-response","84","565906","0.0-84.0","5d5d431608a4b10016285091","5d5d431608a4b10016285091_20240212","","","9","81"
"3713","0","html-button-response","85","570125","0.0-85.0","5d5d431608a4b10016285091","5d5d431608a4b10016285091_20240212","","","9","88"
"5142","0","html-button-response","86","575769","0.0-86.0","5d5d431608a4b10016285091","5d5d431608a4b10016285091_20240212","","","8","148"
"4363","0","html-button-response","87","580635","0.0-87.0","5d5d431608a4b10016285091","5d5d431608a4b10016285091_20240212","","","2","33"
"4051","0","html-button-response","88","585193","0.0-88.0","5d5d431608a4b10016285091","5d5d431608a4b10016285091_20240212","","","8","132"
"3364","0","html-button-response","89","589061","0.0-89.0","5d5d431608a4b10016285091","5d5d431608a4b10016285091_20240212","","","8","134"
"5111","0","html-button-response","90","594681","0.0-90.0","5d5d431608a4b10016285091","5d5d431608a4b10016285091_20240212","","","9","144"
"3697","0","html-button-response","91","598886","0.0-91.0","5d5d431608a4b10016285091","5d5d431608a4b10016285091_20240212","","","9","152"
"6645","0","html-button-response","92","606038","0.0-92.0","5d5d431608a4b10016285091","5d5d431608a4b10016285091_20240212","","","2","36"
"8214","0","html-button-response","93","614759","0.0-93.0","5d5d431608a4b10016285091","5d5d431608a4b10016285091_20240212","","","9","73"
"4932","0","html-button-response","94","620195","0.0-94.0","5d5d431608a4b10016285091","5d5d431608a4b10016285091_20240212","","","4","23"
"6524","0","html-button-response","95","627227","0.0-95.0","5d5d431608a4b10016285091","5d5d431608a4b10016285091_20240212","","","9","77"
"3998","0","html-button-response","96","631732","0.0-96.0","5d5d431608a4b10016285091","5d5d431608a4b10016285091_20240212","","","8","139"
"4278","0","html-button-response","97","636513","0.0-97.0","5d5d431608a4b10016285091","5d5d431608a4b10016285091_20240212","","","8","133"
"7384","0","html-button-response","98","644400","0.0-98.0","5d5d431608a4b10016285091","5d5d431608a4b10016285091_20240212","","","7","178"
"5170","0","html-button-response","99","650077","0.0-99.0","5d5d431608a4b10016285091","5d5d431608a4b10016285091_20240212","","","5","24"
"6660","0","html-button-response","100","657245","0.0-100.0","5d5d431608a4b10016285091","5d5d431608a4b10016285091_20240212","","","2","83"
"3753","0","html-button-response","101","661505","0.0-101.0","5d5d431608a4b10016285091","5d5d431608a4b10016285091_20240212","","","2","27"
"3856","0","html-button-response","102","665867","0.0-102.0","5d5d431608a4b10016285091","5d5d431608a4b10016285091_20240212","","","7","180"
"6991","0","html-button-response","103","673368","0.0-103.0","5d5d431608a4b10016285091","5d5d431608a4b10016285091_20240212","","","9","87"
"4700","0","html-button-response","104","678576","0.0-104.0","5d5d431608a4b10016285091","5d5d431608a4b10016285091_20240212","","","9","82"
"5523","0","html-button-response","105","684608","0.0-105.0","5d5d431608a4b10016285091","5d5d431608a4b10016285091_20240212","","","9","79"
"4953","0","html-button-response","106","690066","0.0-106.0","5d5d431608a4b10016285091","5d5d431608a4b10016285091_20240212","","","8","142"
"5904","0","html-button-response","107","696477","0.0-107.0","5d5d431608a4b10016285091","5d5d431608a4b10016285091_20240212","","","8","145"
"4115","0","html-button-response","108","701097","0.0-108.0","5d5d431608a4b10016285091","5d5d431608a4b10016285091_20240212","","","2","21"
"3914","0","html-button-response","109","705515","0.0-109.0","5d5d431608a4b10016285091","5d5d431608a4b10016285091_20240212","","","2","22"
"3608","0","html-button-response","110","709630","0.0-110.0","5d5d431608a4b10016285091","5d5d431608a4b10016285091_20240212","","","2","34"
"4412","0","html-button-response","111","714546","0.0-111.0","5d5d431608a4b10016285091","5d5d431608a4b10016285091_20240212","","","8","136"
"3750","0","html-button-response","112","718802","0.0-112.0","5d5d431608a4b10016285091","5d5d431608a4b10016285091_20240212","","","9","135"
"3811","0","html-button-response","113","723117","0.0-113.0","5d5d431608a4b10016285091","5d5d431608a4b10016285091_20240212","","","9","151"
"4895","0","html-button-response","114","728519","0.0-114.0","5d5d431608a4b10016285091","5d5d431608a4b10016285091_20240212","","","3","35"
"5181","0","html-button-response","115","734206","0.0-115.0","5d5d431608a4b10016285091","5d5d431608a4b10016285091_20240212","","","8","138"
"3362","0","html-button-response","116","738073","0.0-116.0","5d5d431608a4b10016285091","5d5d431608a4b10016285091_20240212","","","9","90"
"5004","0","html-button-response","117","743584","0.0-117.0","5d5d431608a4b10016285091","5d5d431608a4b10016285091_20240212","","","3","31"
"5572","0","html-button-response","118","749660","0.0-118.0","5d5d431608a4b10016285091","5d5d431608a4b10016285091_20240212","","","2","30"
"5159","0","html-button-response","119","755323","0.0-119.0","5d5d431608a4b10016285091","5d5d431608a4b10016285091_20240212","","","7","146"
"7293","0","html-button-response","120","763124","0.0-120.0","5d5d431608a4b10016285091","5d5d431608a4b10016285091_20240212","","","8","76"
"3888","0","html-button-response","121","767514","0.0-121.0","5d5d431608a4b10016285091","5d5d431608a4b10016285091_20240212","","","9","78"
"4707","0","html-button-response","122","772730","0.0-122.0","5d5d431608a4b10016285091","5d5d431608a4b10016285091_20240212","","","9","89"
"6800","0","html-button-response","123","780031","0.0-123.0","5d5d431608a4b10016285091","5d5d431608a4b10016285091_20240212","","","4","28"
"8140","0","html-button-response","124","788679","0.0-124.0","5d5d431608a4b10016285091","5d5d431608a4b10016285091_20240212","","","9","86"
"4244","0","html-button-response","125","793428","0.0-125.0","5d5d431608a4b10016285091","5d5d431608a4b10016285091_20240212","","","7","179"
"3969","0","html-button-response","126","797904","0.0-126.0","5d5d431608a4b10016285091","5d5d431608a4b10016285091_20240212","","","6","29"
"4006","0","html-button-response","127","802416","0.0-127.0","5d5d431608a4b10016285091","5d5d431608a4b10016285091_20240212","","","8","153"
"5068","0","html-button-response","128","807988","0.0-128.0","5d5d431608a4b10016285091","5d5d431608a4b10016285091_20240212","","","9","80"
"5604","0","html-button-response","129","814097","0.0-129.0","5d5d431608a4b10016285091","5d5d431608a4b10016285091_20240212","","","",""
"14624","0","html-button-response","130","829228","0.0-130.0","5d5d431608a4b10016285091","5d5d431608a4b10016285091_20240212","","","4","11"
"6295","0","html-button-response","131","836031","0.0-131.0","5d5d431608a4b10016285091","5d5d431608a4b10016285091_20240212","","","4","121"
"8578","0","html-button-response","132","845112","0.0-132.0","5d5d431608a4b10016285091","5d5d431608a4b10016285091_20240212","","","6","15"
"3739","0","html-button-response","133","849356","0.0-133.0","5d5d431608a4b10016285091","5d5d431608a4b10016285091_20240212","","","7","110"
"4614","0","html-button-response","134","854476","0.0-134.0","5d5d431608a4b10016285091","5d5d431608a4b10016285091_20240212","","","7","9"
"5138","0","html-button-response","135","860120","0.0-135.0","5d5d431608a4b10016285091","5d5d431608a4b10016285091_20240212","","","8","62"
"3720","0","html-button-response","136","864346","0.0-136.0","5d5d431608a4b10016285091","5d5d431608a4b10016285091_20240212","","","8","66"
"3880","0","html-button-response","137","868733","0.0-137.0","5d5d431608a4b10016285091","5d5d431608a4b10016285091_20240212","","","8","117"
"5672","0","html-button-response","138","874912","0.0-138.0","5d5d431608a4b10016285091","5d5d431608a4b10016285091_20240212","","","8","55"
"5816","0","html-button-response","139","881230","0.0-139.0","5d5d431608a4b10016285091","5d5d431608a4b10016285091_20240212","","","8","129"
"5992","0","html-button-response","140","887728","0.0-140.0","5d5d431608a4b10016285091","5d5d431608a4b10016285091_20240212","","","4","1"
"9083","0","html-button-response","141","897313","0.0-141.0","5d5d431608a4b10016285091","5d5d431608a4b10016285091_20240212","","","7","67"
"4155","0","html-button-response","142","901972","0.0-142.0","5d5d431608a4b10016285091","5d5d431608a4b10016285091_20240212","","","7","111"
"3789","0","html-button-response","143","906265","0.0-143.0","5d5d431608a4b10016285091","5d5d431608a4b10016285091_20240212","","","8","124"
"3402","0","html-button-response","144","910173","0.0-144.0","5d5d431608a4b10016285091","5d5d431608a4b10016285091_20240212","","","8","125"
"3417","0","html-button-response","145","914095","0.0-145.0","5d5d431608a4b10016285091","5d5d431608a4b10016285091_20240212","","","8","113"
"8375","0","html-button-response","146","922974","0.0-146.0","5d5d431608a4b10016285091","5d5d431608a4b10016285091_20240212","","","7","112"
"4116","0","html-button-response","147","927595","0.0-147.0","5d5d431608a4b10016285091","5d5d431608a4b10016285091_20240212","","","7","70"
"3752","0","html-button-response","148","931851","0.0-148.0","5d5d431608a4b10016285091","5d5d431608a4b10016285091_20240212","","","7","58"
"3851","0","html-button-response","149","936210","0.0-149.0","5d5d431608a4b10016285091","5d5d431608a4b10016285091_20240212","","","8","61"
"3780","0","html-button-response","150","940493","0.0-150.0","5d5d431608a4b10016285091","5d5d431608a4b10016285091_20240212","","","8","123"
"5114","0","html-button-response","151","946114","0.0-151.0","5d5d431608a4b10016285091","5d5d431608a4b10016285091_20240212","","","5","3"
"3930","0","html-button-response","152","950549","0.0-152.0","5d5d431608a4b10016285091","5d5d431608a4b10016285091_20240212","","","7","56"
"3526","0","html-button-response","153","954580","0.0-153.0","5d5d431608a4b10016285091","5d5d431608a4b10016285091_20240212","","","7","4"
"4202","0","html-button-response","154","959284","0.0-154.0","5d5d431608a4b10016285091","5d5d431608a4b10016285091_20240212","","","6","71"
"4222","0","html-button-response","155","964014","0.0-155.0","5d5d431608a4b10016285091","5d5d431608a4b10016285091_20240212","","","5","10"
"3714","0","html-button-response","156","968233","0.0-156.0","5d5d431608a4b10016285091","5d5d431608a4b10016285091_20240212","","","8","127"
"3853","0","html-button-response","157","972593","0.0-157.0","5d5d431608a4b10016285091","5d5d431608a4b10016285091_20240212","","","5","17"
"5487","0","html-button-response","158","978585","0.0-158.0","5d5d431608a4b10016285091","5d5d431608a4b10016285091_20240212","","","5","6"
"4462","0","html-button-response","159","983549","0.0-159.0","5d5d431608a4b10016285091","5d5d431608a4b10016285091_20240212","","","5","68"
"4295","0","html-button-response","160","988348","0.0-160.0","5d5d431608a4b10016285091","5d5d431608a4b10016285091_20240212","","","5","14"
"3814","0","html-button-response","161","992665","0.0-161.0","5d5d431608a4b10016285091","5d5d431608a4b10016285091_20240212","","","8","131"
"4651","0","html-button-response","162","997819","0.0-162.0","5d5d431608a4b10016285091","5d5d431608a4b10016285091_20240212","","","8","7"
"4333","0","html-button-response","163","1002658","0.0-163.0","5d5d431608a4b10016285091","5d5d431608a4b10016285091_20240212","","","8","130"
"6272","0","html-button-response","164","1009435","0.0-164.0","5d5d431608a4b10016285091","5d5d431608a4b10016285091_20240212","","","8","126"
"4989","0","html-button-response","165","1014929","0.0-165.0","5d5d431608a4b10016285091","5d5d431608a4b10016285091_20240212","","","7","5"
"5533","0","html-button-response","166","1020968","0.0-166.0","5d5d431608a4b10016285091","5d5d431608a4b10016285091_20240212","","","4","2"
"3853","0","html-button-response","167","1025328","0.0-167.0","5d5d431608a4b10016285091","5d5d431608a4b10016285091_20240212","","","8","109"
"5267","0","html-button-response","168","1031101","0.0-168.0","5d5d431608a4b10016285091","5d5d431608a4b10016285091_20240212","","","7","16"
"5407","0","html-button-response","169","1037012","0.0-169.0","5d5d431608a4b10016285091","5d5d431608a4b10016285091_20240212","","","7","13"
"5200","0","html-button-response","170","1042718","0.0-170.0","5d5d431608a4b10016285091","5d5d431608a4b10016285091_20240212","","","1","60"
"5056","0","html-button-response","171","1048278","0.0-171.0","5d5d431608a4b10016285091","5d5d431608a4b10016285091_20240212","","","4","64"
"3967","0","html-button-response","172","1052751","0.0-172.0","5d5d431608a4b10016285091","5d5d431608a4b10016285091_20240212","","","4","8"
"4068","0","html-button-response","173","1057327","0.0-173.0","5d5d431608a4b10016285091","5d5d431608a4b10016285091_20240212","","","8","57"
"4142","0","html-button-response","174","1061971","0.0-174.0","5d5d431608a4b10016285091","5d5d431608a4b10016285091_20240212","","","8","69"
"4264","0","html-button-response","175","1066743","0.0-175.0","5d5d431608a4b10016285091","5d5d431608a4b10016285091_20240212","","","3","12"
"4122","0","html-button-response","176","1071368","0.0-176.0","5d5d431608a4b10016285091","5d5d431608a4b10016285091_20240212","","","8","72"
"4089","0","html-button-response","177","1075960","0.0-177.0","5d5d431608a4b10016285091","5d5d431608a4b10016285091_20240212","","","8","114"
"4043","0","html-button-response","178","1080511","0.0-178.0","5d5d431608a4b10016285091","5d5d431608a4b10016285091_20240212","","","8","120"
"4483","0","html-button-response","179","1085497","0.0-179.0","5d5d431608a4b10016285091","5d5d431608a4b10016285091_20240212","","","8","116"
"4733","0","html-button-response","180","1090737","0.0-180.0","5d5d431608a4b10016285091","5d5d431608a4b10016285091_20240212","","","8","65"
"3450","0","html-button-response","181","1094691","0.0-181.0","5d5d431608a4b10016285091","5d5d431608a4b10016285091_20240212","","","8","59"
"7186","0","html-button-response","182","1102386","0.0-182.0","5d5d431608a4b10016285091","5d5d431608a4b10016285091_20240212","","","4","18"
"4466","0","html-button-response","183","1107355","0.0-183.0","5d5d431608a4b10016285091","5d5d431608a4b10016285091_20240212","","","8","118"
"4781","0","html-button-response","184","1112641","0.0-184.0","5d5d431608a4b10016285091","5d5d431608a4b10016285091_20240212","","","8","122"
"4571","0","html-button-response","185","1117717","0.0-185.0","5d5d431608a4b10016285091","5d5d431608a4b10016285091_20240212","","","8","115"
"3590","0","html-button-response","186","1121814","0.0-186.0","5d5d431608a4b10016285091","5d5d431608a4b10016285091_20240212","","","8","119"
"3860","0","html-button-response","187","1126176","0.0-187.0","5d5d431608a4b10016285091","5d5d431608a4b10016285091_20240212","","","8","128"
"5561","0","html-button-response","188","1132246","0.0-188.0","5d5d431608a4b10016285091","5d5d431608a4b10016285091_20240212","","","2","63"
"8758","0","html-button-response","189","1141509","0.0-189.0","5d5d431608a4b10016285091","5d5d431608a4b10016285091_20240212","","Thank you. You have reached the end. 
                       <br>Click the button below to reveal your compensation.
                        <br><br>","",""
