"rt","response","trial_type","trial_index","time_elapsed","internal_node_id","part_ID","ID_DATE","screen_id","stimulus","rating","img_id"
"471396","0","html-button-response","0","471398","0.0-0.0","56ddac2e6893b5000de993bf","56ddac2e6893b5000de993bf_20240212","","","",""
"6176","[object Object]","survey-html-form","1","478082","0.0-1.0","56ddac2e6893b5000de993bf","56ddac2e6893b5000de993bf_20240212","prolific_id_page","","",""
"6301","0","html-button-response","2","484383","0.0-2.0","56ddac2e6893b5000de993bf","56ddac2e6893b5000de993bf_20240212","","","",""
"958","0","html-button-response","3","485851","0.0-3.0","56ddac2e6893b5000de993bf","56ddac2e6893b5000de993bf_20240212","","
<div>
Great! You will now go on to rate the faces.
<br><br>
</div>
","",""
"2498","0","html-button-response","4","488862","0.0-4.0","56ddac2e6893b5000de993bf","56ddac2e6893b5000de993bf_20240212","","","8","132"
"1559","0","html-button-response","5","490935","0.0-5.0","56ddac2e6893b5000de993bf","56ddac2e6893b5000de993bf_20240212","","","5","84"
"1500","0","html-button-response","6","492941","0.0-6.0","56ddac2e6893b5000de993bf","56ddac2e6893b5000de993bf_20240212","","","6","139"
"1741","0","html-button-response","7","495198","0.0-7.0","56ddac2e6893b5000de993bf","56ddac2e6893b5000de993bf_20240212","","","8","79"
"1777","0","html-button-response","8","497482","0.0-8.0","56ddac2e6893b5000de993bf","56ddac2e6893b5000de993bf_20240212","","","3","23"
"1457","0","html-button-response","9","499448","0.0-9.0","56ddac2e6893b5000de993bf","56ddac2e6893b5000de993bf_20240212","","","5","134"
"1667","0","html-button-response","10","501620","0.0-10.0","56ddac2e6893b5000de993bf","56ddac2e6893b5000de993bf_20240212","","","4","141"
"232217","0","html-button-response","11","734343","0.0-11.0","56ddac2e6893b5000de993bf","56ddac2e6893b5000de993bf_20240212","","","4","26"
"1573","0","html-button-response","12","736421","0.0-12.0","56ddac2e6893b5000de993bf","56ddac2e6893b5000de993bf_20240212","","","7","87"
"1194","0","html-button-response","13","738132","0.0-13.0","56ddac2e6893b5000de993bf","56ddac2e6893b5000de993bf_20240212","","","5","82"
"972","0","html-button-response","14","739613","0.0-14.0","56ddac2e6893b5000de993bf","56ddac2e6893b5000de993bf_20240212","","","8","73"
"1989","0","html-button-response","15","742104","0.0-15.0","56ddac2e6893b5000de993bf","56ddac2e6893b5000de993bf_20240212","","","2","34"
"1832","0","html-button-response","16","744444","0.0-16.0","56ddac2e6893b5000de993bf","56ddac2e6893b5000de993bf_20240212","","","3","28"
"1615","0","html-button-response","17","746572","0.0-17.0","56ddac2e6893b5000de993bf","56ddac2e6893b5000de993bf_20240212","","","7","76"
"1722","0","html-button-response","18","748801","0.0-18.0","56ddac2e6893b5000de993bf","56ddac2e6893b5000de993bf_20240212","","","9","88"
"1339","0","html-button-response","19","750654","0.0-19.0","56ddac2e6893b5000de993bf","56ddac2e6893b5000de993bf_20240212","","","7","178"
"1688","0","html-button-response","20","752850","0.0-20.0","56ddac2e6893b5000de993bf","56ddac2e6893b5000de993bf_20240212","","","3","33"
"1968","0","html-button-response","21","755329","0.0-21.0","56ddac2e6893b5000de993bf","56ddac2e6893b5000de993bf_20240212","","","1","20"
"1605","0","html-button-response","22","757451","0.0-22.0","56ddac2e6893b5000de993bf","56ddac2e6893b5000de993bf_20240212","","","6","30"
"1490","0","html-button-response","23","759447","0.0-23.0","56ddac2e6893b5000de993bf","56ddac2e6893b5000de993bf_20240212","","","8","89"
"1965","0","html-button-response","24","761919","0.0-24.0","56ddac2e6893b5000de993bf","56ddac2e6893b5000de993bf_20240212","","","9","77"
"1733","0","html-button-response","25","764156","0.0-25.0","56ddac2e6893b5000de993bf","56ddac2e6893b5000de993bf_20240212","","","6","136"
"1588","0","html-button-response","26","766246","0.0-26.0","56ddac2e6893b5000de993bf","56ddac2e6893b5000de993bf_20240212","","","7","147"
"1604","0","html-button-response","27","768353","0.0-27.0","56ddac2e6893b5000de993bf","56ddac2e6893b5000de993bf_20240212","","","6","179"
"2303","0","html-button-response","28","771164","0.0-28.0","56ddac2e6893b5000de993bf","56ddac2e6893b5000de993bf_20240212","","","3","22"
"6273","0","html-button-response","29","777938","0.0-29.0","56ddac2e6893b5000de993bf","56ddac2e6893b5000de993bf_20240212","","","6","146"
"2105","0","html-button-response","30","780545","0.0-30.0","56ddac2e6893b5000de993bf","56ddac2e6893b5000de993bf_20240212","","","7","154"
"1795","0","html-button-response","31","782846","0.0-31.0","56ddac2e6893b5000de993bf","56ddac2e6893b5000de993bf_20240212","","","8","90"
"2004","0","html-button-response","32","785365","0.0-32.0","56ddac2e6893b5000de993bf","56ddac2e6893b5000de993bf_20240212","","","2","36"
"3988","0","html-button-response","33","789863","0.0-33.0","56ddac2e6893b5000de993bf","56ddac2e6893b5000de993bf_20240212","","","8","142"
"28578","0","html-button-response","34","818954","0.0-34.0","56ddac2e6893b5000de993bf","56ddac2e6893b5000de993bf_20240212","","","5","25"
"1490","0","html-button-response","35","820949","0.0-35.0","56ddac2e6893b5000de993bf","56ddac2e6893b5000de993bf_20240212","","","8","24"
"1946","0","html-button-response","36","823404","0.0-36.0","56ddac2e6893b5000de993bf","56ddac2e6893b5000de993bf_20240212","","","7","29"
"1397","0","html-button-response","37","825306","0.0-37.0","56ddac2e6893b5000de993bf","56ddac2e6893b5000de993bf_20240212","","","8","80"
"1426","0","html-button-response","38","827242","0.0-38.0","56ddac2e6893b5000de993bf","56ddac2e6893b5000de993bf_20240212","","","6","27"
"1746","0","html-button-response","39","829499","0.0-39.0","56ddac2e6893b5000de993bf","56ddac2e6893b5000de993bf_20240212","","","7","32"
"36244","0","html-button-response","40","866245","0.0-40.0","56ddac2e6893b5000de993bf","56ddac2e6893b5000de993bf_20240212","","","4","153"
"1488","0","html-button-response","41","868239","0.0-41.0","56ddac2e6893b5000de993bf","56ddac2e6893b5000de993bf_20240212","","","7","74"
"2601","0","html-button-response","42","871345","0.0-42.0","56ddac2e6893b5000de993bf","56ddac2e6893b5000de993bf_20240212","","","6","151"
"2405","0","html-button-response","43","874265","0.0-43.0","56ddac2e6893b5000de993bf","56ddac2e6893b5000de993bf_20240212","","","7","140"
"2926","0","html-button-response","44","877695","0.0-44.0","56ddac2e6893b5000de993bf","56ddac2e6893b5000de993bf_20240212","","","7","75"
"7760","0","html-button-response","45","885968","0.0-45.0","56ddac2e6893b5000de993bf","56ddac2e6893b5000de993bf_20240212","","","7","145"
"33732","0","html-button-response","46","920202","0.0-46.0","56ddac2e6893b5000de993bf","56ddac2e6893b5000de993bf_20240212","","","8","85"
"1385","0","html-button-response","47","922099","0.0-47.0","56ddac2e6893b5000de993bf","56ddac2e6893b5000de993bf_20240212","","","7","135"
"1272","0","html-button-response","48","923882","0.0-48.0","56ddac2e6893b5000de993bf","56ddac2e6893b5000de993bf_20240212","","","6","148"
"1220","0","html-button-response","49","925611","0.0-49.0","56ddac2e6893b5000de993bf","56ddac2e6893b5000de993bf_20240212","","","5","137"
"1610","0","html-button-response","50","927722","0.0-50.0","56ddac2e6893b5000de993bf","56ddac2e6893b5000de993bf_20240212","","","6","78"
"2063","0","html-button-response","51","930300","0.0-51.0","56ddac2e6893b5000de993bf","56ddac2e6893b5000de993bf_20240212","","","6","143"
"578190","0","html-button-response","52","1508994","0.0-52.0","56ddac2e6893b5000de993bf","56ddac2e6893b5000de993bf_20240212","","","7","31"
"1830","0","html-button-response","53","1511326","0.0-53.0","56ddac2e6893b5000de993bf","56ddac2e6893b5000de993bf_20240212","","","5","149"
"1891","0","html-button-response","54","1513720","0.0-54.0","56ddac2e6893b5000de993bf","56ddac2e6893b5000de993bf_20240212","","","2","83"
"1331","0","html-button-response","55","1515563","0.0-55.0","56ddac2e6893b5000de993bf","56ddac2e6893b5000de993bf_20240212","","","7","138"
"938","0","html-button-response","56","1517008","0.0-56.0","56ddac2e6893b5000de993bf","56ddac2e6893b5000de993bf_20240212","","","5","144"
"1202","0","html-button-response","57","1518711","0.0-57.0","56ddac2e6893b5000de993bf","56ddac2e6893b5000de993bf_20240212","","","7","81"
"1289","0","html-button-response","58","1520506","0.0-58.0","56ddac2e6893b5000de993bf","56ddac2e6893b5000de993bf_20240212","","","8","152"
"1499","0","html-button-response","59","1522517","0.0-59.0","56ddac2e6893b5000de993bf","56ddac2e6893b5000de993bf_20240212","","","4","180"
"1083","0","html-button-response","60","1524107","0.0-60.0","56ddac2e6893b5000de993bf","56ddac2e6893b5000de993bf_20240212","","","6","86"
"1518","0","html-button-response","61","1526126","0.0-61.0","56ddac2e6893b5000de993bf","56ddac2e6893b5000de993bf_20240212","","","2","19"
"1489","0","html-button-response","62","1528130","0.0-62.0","56ddac2e6893b5000de993bf","56ddac2e6893b5000de993bf_20240212","","","7","150"
"1229","0","html-button-response","63","1529872","0.0-63.0","56ddac2e6893b5000de993bf","56ddac2e6893b5000de993bf_20240212","","","6","133"
"2057","0","html-button-response","64","1532431","0.0-64.0","56ddac2e6893b5000de993bf","56ddac2e6893b5000de993bf_20240212","","","3","21"
"1283","0","html-button-response","65","1534223","0.0-65.0","56ddac2e6893b5000de993bf","56ddac2e6893b5000de993bf_20240212","","","5","35"
"1102","0","html-button-response","66","1535832","0.0-66.0","56ddac2e6893b5000de993bf","56ddac2e6893b5000de993bf_20240212","","","",""
"4094","0","html-button-response","67","1540437","0.0-67.0","56ddac2e6893b5000de993bf","56ddac2e6893b5000de993bf_20240212","","","8","50"
"1172","0","html-button-response","68","1542114","0.0-68.0","56ddac2e6893b5000de993bf","56ddac2e6893b5000de993bf_20240212","","","5","176"
"2201","0","html-button-response","69","1544821","0.0-69.0","56ddac2e6893b5000de993bf","56ddac2e6893b5000de993bf_20240212","","","6","99"
"1993","0","html-button-response","70","1547318","0.0-70.0","56ddac2e6893b5000de993bf","56ddac2e6893b5000de993bf_20240212","","","7","42"
"1462","0","html-button-response","71","1549283","0.0-71.0","56ddac2e6893b5000de993bf","56ddac2e6893b5000de993bf_20240212","","","9","97"
"1171","0","html-button-response","72","1550961","0.0-72.0","56ddac2e6893b5000de993bf","56ddac2e6893b5000de993bf_20240212","","","8","98"
"1449","0","html-button-response","73","1552920","0.0-73.0","56ddac2e6893b5000de993bf","56ddac2e6893b5000de993bf_20240212","","","4","45"
"1550","0","html-button-response","74","1554980","0.0-74.0","56ddac2e6893b5000de993bf","56ddac2e6893b5000de993bf_20240212","","","2","43"
"1470","0","html-button-response","75","1556953","0.0-75.0","56ddac2e6893b5000de993bf","56ddac2e6893b5000de993bf_20240212","","","3","53"
"1804","0","html-button-response","76","1559267","0.0-76.0","56ddac2e6893b5000de993bf","56ddac2e6893b5000de993bf_20240212","","","7","156"
"1240","0","html-button-response","77","1561010","0.0-77.0","56ddac2e6893b5000de993bf","56ddac2e6893b5000de993bf_20240212","","","8","52"
"1716","0","html-button-response","78","1563228","0.0-78.0","56ddac2e6893b5000de993bf","56ddac2e6893b5000de993bf_20240212","","","7","160"
"1079","0","html-button-response","79","1564812","0.0-79.0","56ddac2e6893b5000de993bf","56ddac2e6893b5000de993bf_20240212","","","6","175"
"1153","0","html-button-response","80","1566472","0.0-80.0","56ddac2e6893b5000de993bf","56ddac2e6893b5000de993bf_20240212","","","8","39"
"1286","0","html-button-response","81","1568273","0.0-81.0","56ddac2e6893b5000de993bf","56ddac2e6893b5000de993bf_20240212","","","5","171"
"1119","0","html-button-response","82","1569897","0.0-82.0","56ddac2e6893b5000de993bf","56ddac2e6893b5000de993bf_20240212","","","8","104"
"1064","0","html-button-response","83","1571464","0.0-83.0","56ddac2e6893b5000de993bf","56ddac2e6893b5000de993bf_20240212","","","7","49"
"1177","0","html-button-response","84","1573144","0.0-84.0","56ddac2e6893b5000de993bf","56ddac2e6893b5000de993bf_20240212","","","3","174"
"1081","0","html-button-response","85","1574726","0.0-85.0","56ddac2e6893b5000de993bf","56ddac2e6893b5000de993bf_20240212","","","6","167"
"1519","0","html-button-response","86","1576749","0.0-86.0","56ddac2e6893b5000de993bf","56ddac2e6893b5000de993bf_20240212","","","8","101"
"1052","0","html-button-response","87","1578302","0.0-87.0","56ddac2e6893b5000de993bf","56ddac2e6893b5000de993bf_20240212","","","4","173"
"1013","0","html-button-response","88","1579817","0.0-88.0","56ddac2e6893b5000de993bf","56ddac2e6893b5000de993bf_20240212","","","8","162"
"1052","0","html-button-response","89","1581382","0.0-89.0","56ddac2e6893b5000de993bf","56ddac2e6893b5000de993bf_20240212","","","7","96"
"1368","0","html-button-response","90","1583252","0.0-90.0","56ddac2e6893b5000de993bf","56ddac2e6893b5000de993bf_20240212","","","8","100"
"983","0","html-button-response","91","1584752","0.0-91.0","56ddac2e6893b5000de993bf","56ddac2e6893b5000de993bf_20240212","","","6","107"
"1215","0","html-button-response","92","1586482","0.0-92.0","56ddac2e6893b5000de993bf","56ddac2e6893b5000de993bf_20240212","","","3","54"
"1075","0","html-button-response","93","1588060","0.0-93.0","56ddac2e6893b5000de993bf","56ddac2e6893b5000de993bf_20240212","","","8","170"
"1175","0","html-button-response","94","1589739","0.0-94.0","56ddac2e6893b5000de993bf","56ddac2e6893b5000de993bf_20240212","","","6","168"
"1338","0","html-button-response","95","1591585","0.0-95.0","56ddac2e6893b5000de993bf","56ddac2e6893b5000de993bf_20240212","","","2","47"
"1091","0","html-button-response","96","1593178","0.0-96.0","56ddac2e6893b5000de993bf","56ddac2e6893b5000de993bf_20240212","","","6","91"
"1111","0","html-button-response","97","1594796","0.0-97.0","56ddac2e6893b5000de993bf","56ddac2e6893b5000de993bf_20240212","","","4","40"
"944","0","html-button-response","98","1596242","0.0-98.0","56ddac2e6893b5000de993bf","56ddac2e6893b5000de993bf_20240212","","","9","37"
"1507","0","html-button-response","99","1598251","0.0-99.0","56ddac2e6893b5000de993bf","56ddac2e6893b5000de993bf_20240212","","","6","181"
"1766","0","html-button-response","100","1600518","0.0-100.0","56ddac2e6893b5000de993bf","56ddac2e6893b5000de993bf_20240212","","","2","166"
"1854","0","html-button-response","101","1602878","0.0-101.0","56ddac2e6893b5000de993bf","56ddac2e6893b5000de993bf_20240212","","","1","38"
"1332","0","html-button-response","102","1604714","0.0-102.0","56ddac2e6893b5000de993bf","56ddac2e6893b5000de993bf_20240212","","","9","94"
"1834","0","html-button-response","103","1607056","0.0-103.0","56ddac2e6893b5000de993bf","56ddac2e6893b5000de993bf_20240212","","","3","161"
"1193","0","html-button-response","104","1608757","0.0-104.0","56ddac2e6893b5000de993bf","56ddac2e6893b5000de993bf_20240212","","","7","108"
"1157","0","html-button-response","105","1610426","0.0-105.0","56ddac2e6893b5000de993bf","56ddac2e6893b5000de993bf_20240212","","","5","165"
"1753","0","html-button-response","106","1612691","0.0-106.0","56ddac2e6893b5000de993bf","56ddac2e6893b5000de993bf_20240212","","","3","182"
"1526","0","html-button-response","107","1614726","0.0-107.0","56ddac2e6893b5000de993bf","56ddac2e6893b5000de993bf_20240212","","","6","177"
"1578","0","html-button-response","108","1616811","0.0-108.0","56ddac2e6893b5000de993bf","56ddac2e6893b5000de993bf_20240212","","","7","106"
"1516","0","html-button-response","109","1618843","0.0-109.0","56ddac2e6893b5000de993bf","56ddac2e6893b5000de993bf_20240212","","","2","164"
"1824","0","html-button-response","110","1621168","0.0-110.0","56ddac2e6893b5000de993bf","56ddac2e6893b5000de993bf_20240212","","","1","103"
"2225","0","html-button-response","111","1623900","0.0-111.0","56ddac2e6893b5000de993bf","56ddac2e6893b5000de993bf_20240212","","","2","105"
"1315","0","html-button-response","112","1625717","0.0-112.0","56ddac2e6893b5000de993bf","56ddac2e6893b5000de993bf_20240212","","","7","163"
"1194","0","html-button-response","113","1627420","0.0-113.0","56ddac2e6893b5000de993bf","56ddac2e6893b5000de993bf_20240212","","","5","155"
"2500","0","html-button-response","114","1630426","0.0-114.0","56ddac2e6893b5000de993bf","56ddac2e6893b5000de993bf_20240212","","","4","169"
"1008","0","html-button-response","115","1631936","0.0-115.0","56ddac2e6893b5000de993bf","56ddac2e6893b5000de993bf_20240212","","","3","46"
"736","0","html-button-response","116","1633174","0.0-116.0","56ddac2e6893b5000de993bf","56ddac2e6893b5000de993bf_20240212","","","7","93"
"1787","0","html-button-response","117","1635464","0.0-117.0","56ddac2e6893b5000de993bf","56ddac2e6893b5000de993bf_20240212","","","7","158"
"2097","0","html-button-response","118","1638067","0.0-118.0","56ddac2e6893b5000de993bf","56ddac2e6893b5000de993bf_20240212","","","2","159"
"1319","0","html-button-response","119","1639900","0.0-119.0","56ddac2e6893b5000de993bf","56ddac2e6893b5000de993bf_20240212","","","8","92"
"1220","0","html-button-response","120","1641622","0.0-120.0","56ddac2e6893b5000de993bf","56ddac2e6893b5000de993bf_20240212","","","7","172"
"1446","0","html-button-response","121","1643571","0.0-121.0","56ddac2e6893b5000de993bf","56ddac2e6893b5000de993bf_20240212","","","4","44"
"1330","0","html-button-response","122","1645407","0.0-122.0","56ddac2e6893b5000de993bf","56ddac2e6893b5000de993bf_20240212","","","6","48"
"1307","0","html-button-response","123","1647218","0.0-123.0","56ddac2e6893b5000de993bf","56ddac2e6893b5000de993bf_20240212","","","2","51"
"1088","0","html-button-response","124","1648821","0.0-124.0","56ddac2e6893b5000de993bf","56ddac2e6893b5000de993bf_20240212","","","7","95"
"1290","0","html-button-response","125","1650618","0.0-125.0","56ddac2e6893b5000de993bf","56ddac2e6893b5000de993bf_20240212","","","5","157"
"1832","0","html-button-response","126","1652955","0.0-126.0","56ddac2e6893b5000de993bf","56ddac2e6893b5000de993bf_20240212","","","3","183"
"1144","0","html-button-response","127","1654614","0.0-127.0","56ddac2e6893b5000de993bf","56ddac2e6893b5000de993bf_20240212","","","7","102"
"1568","0","html-button-response","128","1656694","0.0-128.0","56ddac2e6893b5000de993bf","56ddac2e6893b5000de993bf_20240212","","","2","41"
"1032","0","html-button-response","129","1658237","0.0-129.0","56ddac2e6893b5000de993bf","56ddac2e6893b5000de993bf_20240212","","","",""
"2653","0","html-button-response","130","1661406","0.0-130.0","56ddac2e6893b5000de993bf","56ddac2e6893b5000de993bf_20240212","","","7","58"
"1718","0","html-button-response","131","1663640","0.0-131.0","56ddac2e6893b5000de993bf","56ddac2e6893b5000de993bf_20240212","","","4","16"
"1633","0","html-button-response","132","1665774","0.0-132.0","56ddac2e6893b5000de993bf","56ddac2e6893b5000de993bf_20240212","","","8","114"
"1130","0","html-button-response","133","1667412","0.0-133.0","56ddac2e6893b5000de993bf","56ddac2e6893b5000de993bf_20240212","","","6","119"
"1570","0","html-button-response","134","1669491","0.0-134.0","56ddac2e6893b5000de993bf","56ddac2e6893b5000de993bf_20240212","","","5","128"
"1118","0","html-button-response","135","1671114","0.0-135.0","56ddac2e6893b5000de993bf","56ddac2e6893b5000de993bf_20240212","","","8","56"
"1351","0","html-button-response","136","1672973","0.0-136.0","56ddac2e6893b5000de993bf","56ddac2e6893b5000de993bf_20240212","","","3","12"
"1745","0","html-button-response","137","1675228","0.0-137.0","56ddac2e6893b5000de993bf","56ddac2e6893b5000de993bf_20240212","","","5","13"
"1033","0","html-button-response","138","1676769","0.0-138.0","56ddac2e6893b5000de993bf","56ddac2e6893b5000de993bf_20240212","","","6","118"
"908","0","html-button-response","139","1678178","0.0-139.0","56ddac2e6893b5000de993bf","56ddac2e6893b5000de993bf_20240212","","","7","111"
"1421","0","html-button-response","140","1680112","0.0-140.0","56ddac2e6893b5000de993bf","56ddac2e6893b5000de993bf_20240212","","","8","112"
"1085","0","html-button-response","141","1681711","0.0-141.0","56ddac2e6893b5000de993bf","56ddac2e6893b5000de993bf_20240212","","","6","17"
"1295","0","html-button-response","142","1683515","0.0-142.0","56ddac2e6893b5000de993bf","56ddac2e6893b5000de993bf_20240212","","","8","124"
"1357","0","html-button-response","143","1685387","0.0-143.0","56ddac2e6893b5000de993bf","56ddac2e6893b5000de993bf_20240212","","","3","125"
"1095","0","html-button-response","144","1686988","0.0-144.0","56ddac2e6893b5000de993bf","56ddac2e6893b5000de993bf_20240212","","","5","15"
"1840","0","html-button-response","145","1689344","0.0-145.0","56ddac2e6893b5000de993bf","56ddac2e6893b5000de993bf_20240212","","","3","131"
"1013","0","html-button-response","146","1690859","0.0-146.0","56ddac2e6893b5000de993bf","56ddac2e6893b5000de993bf_20240212","","","8","129"
"958","0","html-button-response","147","1692322","0.0-147.0","56ddac2e6893b5000de993bf","56ddac2e6893b5000de993bf_20240212","","","5","55"
"1160","0","html-button-response","148","1693987","0.0-148.0","56ddac2e6893b5000de993bf","56ddac2e6893b5000de993bf_20240212","","","3","5"
"774","0","html-button-response","149","1695267","0.0-149.0","56ddac2e6893b5000de993bf","56ddac2e6893b5000de993bf_20240212","","","8","7"
"1273","0","html-button-response","150","1697043","0.0-150.0","56ddac2e6893b5000de993bf","56ddac2e6893b5000de993bf_20240212","","","5","120"
"5135","0","html-button-response","151","1702683","0.0-151.0","56ddac2e6893b5000de993bf","56ddac2e6893b5000de993bf_20240212","","","5","66"
"1094","0","html-button-response","152","1704281","0.0-152.0","56ddac2e6893b5000de993bf","56ddac2e6893b5000de993bf_20240212","","","6","57"
"1127","0","html-button-response","153","1705911","0.0-153.0","56ddac2e6893b5000de993bf","56ddac2e6893b5000de993bf_20240212","","","3","109"
"1676","0","html-button-response","154","1708090","0.0-154.0","56ddac2e6893b5000de993bf","56ddac2e6893b5000de993bf_20240212","","","2","1"
"1186","0","html-button-response","155","1709777","0.0-155.0","56ddac2e6893b5000de993bf","56ddac2e6893b5000de993bf_20240212","","","5","18"
"982","0","html-button-response","156","1711260","0.0-156.0","56ddac2e6893b5000de993bf","56ddac2e6893b5000de993bf_20240212","","","3","123"
"979","0","html-button-response","157","1712748","0.0-157.0","56ddac2e6893b5000de993bf","56ddac2e6893b5000de993bf_20240212","","","7","117"
"1437","0","html-button-response","158","1714698","0.0-158.0","56ddac2e6893b5000de993bf","56ddac2e6893b5000de993bf_20240212","","","5","65"
"1198","0","html-button-response","159","1716401","0.0-159.0","56ddac2e6893b5000de993bf","56ddac2e6893b5000de993bf_20240212","","","3","67"
"1577","0","html-button-response","160","1718484","0.0-160.0","56ddac2e6893b5000de993bf","56ddac2e6893b5000de993bf_20240212","","","5","64"
"1525","0","html-button-response","161","1720510","0.0-161.0","56ddac2e6893b5000de993bf","56ddac2e6893b5000de993bf_20240212","","","3","9"
"820","0","html-button-response","162","1721836","0.0-162.0","56ddac2e6893b5000de993bf","56ddac2e6893b5000de993bf_20240212","","","7","11"
"1469","0","html-button-response","163","1723821","0.0-163.0","56ddac2e6893b5000de993bf","56ddac2e6893b5000de993bf_20240212","","","2","130"
"1675","0","html-button-response","164","1726000","0.0-164.0","56ddac2e6893b5000de993bf","56ddac2e6893b5000de993bf_20240212","","","6","71"
"1572","0","html-button-response","165","1728086","0.0-165.0","56ddac2e6893b5000de993bf","56ddac2e6893b5000de993bf_20240212","","","5","59"
"164145","0","html-button-response","166","1892741","0.0-166.0","56ddac2e6893b5000de993bf","56ddac2e6893b5000de993bf_20240212","","","6","61"
"1020","0","html-button-response","167","1894264","0.0-167.0","56ddac2e6893b5000de993bf","56ddac2e6893b5000de993bf_20240212","","","5","72"
"1549","0","html-button-response","168","1896318","0.0-168.0","56ddac2e6893b5000de993bf","56ddac2e6893b5000de993bf_20240212","","","2","60"
"2153","0","html-button-response","169","1898985","0.0-169.0","56ddac2e6893b5000de993bf","56ddac2e6893b5000de993bf_20240212","","","4","14"
"1241","0","html-button-response","170","1900728","0.0-170.0","56ddac2e6893b5000de993bf","56ddac2e6893b5000de993bf_20240212","","","7","70"
"1441","0","html-button-response","171","1902679","0.0-171.0","56ddac2e6893b5000de993bf","56ddac2e6893b5000de993bf_20240212","","","3","10"
"1373","0","html-button-response","172","1904563","0.0-172.0","56ddac2e6893b5000de993bf","56ddac2e6893b5000de993bf_20240212","","","5","2"
"1522","0","html-button-response","173","1906587","0.0-173.0","56ddac2e6893b5000de993bf","56ddac2e6893b5000de993bf_20240212","","","7","121"
"1423","0","html-button-response","174","1908518","0.0-174.0","56ddac2e6893b5000de993bf","56ddac2e6893b5000de993bf_20240212","","","4","68"
"1254","0","html-button-response","175","1910288","0.0-175.0","56ddac2e6893b5000de993bf","56ddac2e6893b5000de993bf_20240212","","","8","69"
"1301","0","html-button-response","176","1912101","0.0-176.0","56ddac2e6893b5000de993bf","56ddac2e6893b5000de993bf_20240212","","","8","110"
"1298","0","html-button-response","177","1913911","0.0-177.0","56ddac2e6893b5000de993bf","56ddac2e6893b5000de993bf_20240212","","","7","116"
"2854","0","html-button-response","178","1917278","0.0-178.0","56ddac2e6893b5000de993bf","56ddac2e6893b5000de993bf_20240212","","","2","63"
"1264","0","html-button-response","179","1919044","0.0-179.0","56ddac2e6893b5000de993bf","56ddac2e6893b5000de993bf_20240212","","","3","113"
"1516","0","html-button-response","180","1921064","0.0-180.0","56ddac2e6893b5000de993bf","56ddac2e6893b5000de993bf_20240212","","","1","4"
"1514","0","html-button-response","181","1923082","0.0-181.0","56ddac2e6893b5000de993bf","56ddac2e6893b5000de993bf_20240212","","","2","8"
"1602","0","html-button-response","182","1925200","0.0-182.0","56ddac2e6893b5000de993bf","56ddac2e6893b5000de993bf_20240212","","","3","126"
"1554","0","html-button-response","183","1927264","0.0-183.0","56ddac2e6893b5000de993bf","56ddac2e6893b5000de993bf_20240212","","","2","122"
"1534","0","html-button-response","184","1929302","0.0-184.0","56ddac2e6893b5000de993bf","56ddac2e6893b5000de993bf_20240212","","","1","62"
"2057","0","html-button-response","185","1931866","0.0-185.0","56ddac2e6893b5000de993bf","56ddac2e6893b5000de993bf_20240212","","","4","3"
"1869","0","html-button-response","186","1934241","0.0-186.0","56ddac2e6893b5000de993bf","56ddac2e6893b5000de993bf_20240212","","","7","127"
"1446","0","html-button-response","187","1936200","0.0-187.0","56ddac2e6893b5000de993bf","56ddac2e6893b5000de993bf_20240212","","","5","6"
"1451","0","html-button-response","188","1938158","0.0-188.0","56ddac2e6893b5000de993bf","56ddac2e6893b5000de993bf_20240212","","","9","115"
"899","0","html-button-response","189","1939571","0.0-189.0","56ddac2e6893b5000de993bf","56ddac2e6893b5000de993bf_20240212","","Thank you. You have reached the end. 
                       <br>Click the button below to reveal your compensation.
                        <br><br>","",""
