"rt","response","trial_type","trial_index","time_elapsed","internal_node_id","part_ID","ID_DATE","screen_id","stimulus","rating","img_id"
"53121","0","html-button-response","0","53127","0.0-0.0","640b129fbdcd3bb1c4f1f7fe","640b129fbdcd3bb1c4f1f7fe_20240212","","","",""
"12291","[object Object]","survey-html-form","1","65927","0.0-1.0","640b129fbdcd3bb1c4f1f7fe","640b129fbdcd3bb1c4f1f7fe_20240212","prolific_id_page","","",""
"28876","0","html-button-response","2","94807","0.0-2.0","640b129fbdcd3bb1c4f1f7fe","640b129fbdcd3bb1c4f1f7fe_20240212","","","",""
"3125","0","html-button-response","3","98437","0.0-3.0","640b129fbdcd3bb1c4f1f7fe","640b129fbdcd3bb1c4f1f7fe_20240212","","
<div>
Great! You will now go on to rate the faces.
<br><br>
</div>
","",""
"11785","0","html-button-response","4","110734","0.0-4.0","640b129fbdcd3bb1c4f1f7fe","640b129fbdcd3bb1c4f1f7fe_20240212","","","1","181"
"6371","0","html-button-response","5","117617","0.0-5.0","640b129fbdcd3bb1c4f1f7fe","640b129fbdcd3bb1c4f1f7fe_20240212","","","7","98"
"3273","0","html-button-response","6","121395","0.0-6.0","640b129fbdcd3bb1c4f1f7fe","640b129fbdcd3bb1c4f1f7fe_20240212","","","9","160"
"2446","0","html-button-response","7","124347","0.0-7.0","640b129fbdcd3bb1c4f1f7fe","640b129fbdcd3bb1c4f1f7fe_20240212","","","5","155"
"3067","0","html-button-response","8","127919","0.0-8.0","640b129fbdcd3bb1c4f1f7fe","640b129fbdcd3bb1c4f1f7fe_20240212","","","5","167"
"3404","0","html-button-response","9","131833","0.0-9.0","640b129fbdcd3bb1c4f1f7fe","640b129fbdcd3bb1c4f1f7fe_20240212","","","1","48"
"3137","0","html-button-response","10","135475","0.0-10.0","640b129fbdcd3bb1c4f1f7fe","640b129fbdcd3bb1c4f1f7fe_20240212","","","1","95"
"3003","0","html-button-response","11","138983","0.0-11.0","640b129fbdcd3bb1c4f1f7fe","640b129fbdcd3bb1c4f1f7fe_20240212","","","1","183"
"2373","0","html-button-response","12","141869","0.0-12.0","640b129fbdcd3bb1c4f1f7fe","640b129fbdcd3bb1c4f1f7fe_20240212","","","1","45"
"3350","0","html-button-response","13","145723","0.0-13.0","640b129fbdcd3bb1c4f1f7fe","640b129fbdcd3bb1c4f1f7fe_20240212","","","9","92"
"3603","0","html-button-response","14","149843","0.0-14.0","640b129fbdcd3bb1c4f1f7fe","640b129fbdcd3bb1c4f1f7fe_20240212","","","2","175"
"5851","0","html-button-response","15","156201","0.0-15.0","640b129fbdcd3bb1c4f1f7fe","640b129fbdcd3bb1c4f1f7fe_20240212","","","8","156"
"2272","0","html-button-response","16","158979","0.0-16.0","640b129fbdcd3bb1c4f1f7fe","640b129fbdcd3bb1c4f1f7fe_20240212","","","9","100"
"3448","0","html-button-response","17","162933","0.0-17.0","640b129fbdcd3bb1c4f1f7fe","640b129fbdcd3bb1c4f1f7fe_20240212","","","6","164"
"1906","0","html-button-response","18","165351","0.0-18.0","640b129fbdcd3bb1c4f1f7fe","640b129fbdcd3bb1c4f1f7fe_20240212","","","5","46"
"4426","0","html-button-response","19","170287","0.0-19.0","640b129fbdcd3bb1c4f1f7fe","640b129fbdcd3bb1c4f1f7fe_20240212","","","1","161"
"2617","0","html-button-response","20","173407","0.0-20.0","640b129fbdcd3bb1c4f1f7fe","640b129fbdcd3bb1c4f1f7fe_20240212","","","1","44"
"3291","0","html-button-response","21","177200","0.0-21.0","640b129fbdcd3bb1c4f1f7fe","640b129fbdcd3bb1c4f1f7fe_20240212","","","7","105"
"2212","0","html-button-response","22","179916","0.0-22.0","640b129fbdcd3bb1c4f1f7fe","640b129fbdcd3bb1c4f1f7fe_20240212","","","7","173"
"3297","0","html-button-response","23","183722","0.0-23.0","640b129fbdcd3bb1c4f1f7fe","640b129fbdcd3bb1c4f1f7fe_20240212","","","1","37"
"3498","0","html-button-response","24","187734","0.0-24.0","640b129fbdcd3bb1c4f1f7fe","640b129fbdcd3bb1c4f1f7fe_20240212","","","6","169"
"2688","0","html-button-response","25","190928","0.0-25.0","640b129fbdcd3bb1c4f1f7fe","640b129fbdcd3bb1c4f1f7fe_20240212","","","1","163"
"2390","0","html-button-response","26","193822","0.0-26.0","640b129fbdcd3bb1c4f1f7fe","640b129fbdcd3bb1c4f1f7fe_20240212","","","1","176"
"2787","0","html-button-response","27","197122","0.0-27.0","640b129fbdcd3bb1c4f1f7fe","640b129fbdcd3bb1c4f1f7fe_20240212","","","1","162"
"2318","0","html-button-response","28","199950","0.0-28.0","640b129fbdcd3bb1c4f1f7fe","640b129fbdcd3bb1c4f1f7fe_20240212","","","1","43"
"3939","0","html-button-response","29","204400","0.0-29.0","640b129fbdcd3bb1c4f1f7fe","640b129fbdcd3bb1c4f1f7fe_20240212","","","5","157"
"2335","0","html-button-response","30","207238","0.0-30.0","640b129fbdcd3bb1c4f1f7fe","640b129fbdcd3bb1c4f1f7fe_20240212","","","1","47"
"2581","0","html-button-response","31","210334","0.0-31.0","640b129fbdcd3bb1c4f1f7fe","640b129fbdcd3bb1c4f1f7fe_20240212","","","2","172"
"2832","0","html-button-response","32","213676","0.0-32.0","640b129fbdcd3bb1c4f1f7fe","640b129fbdcd3bb1c4f1f7fe_20240212","","","7","170"
"2619","0","html-button-response","33","216800","0.0-33.0","640b129fbdcd3bb1c4f1f7fe","640b129fbdcd3bb1c4f1f7fe_20240212","","","1","39"
"2996","0","html-button-response","34","220300","0.0-34.0","640b129fbdcd3bb1c4f1f7fe","640b129fbdcd3bb1c4f1f7fe_20240212","","","2","106"
"2414","0","html-button-response","35","223218","0.0-35.0","640b129fbdcd3bb1c4f1f7fe","640b129fbdcd3bb1c4f1f7fe_20240212","","","9","97"
"5002","0","html-button-response","36","228728","0.0-36.0","640b129fbdcd3bb1c4f1f7fe","640b129fbdcd3bb1c4f1f7fe_20240212","","","5","171"
"2609","0","html-button-response","37","231848","0.0-37.0","640b129fbdcd3bb1c4f1f7fe","640b129fbdcd3bb1c4f1f7fe_20240212","","","1","174"
"2404","0","html-button-response","38","234760","0.0-38.0","640b129fbdcd3bb1c4f1f7fe","640b129fbdcd3bb1c4f1f7fe_20240212","","","1","168"
"2375","0","html-button-response","39","237648","0.0-39.0","640b129fbdcd3bb1c4f1f7fe","640b129fbdcd3bb1c4f1f7fe_20240212","","","9","102"
"2695","0","html-button-response","40","240852","0.0-40.0","640b129fbdcd3bb1c4f1f7fe","640b129fbdcd3bb1c4f1f7fe_20240212","","","1","40"
"2884","0","html-button-response","41","244242","0.0-41.0","640b129fbdcd3bb1c4f1f7fe","640b129fbdcd3bb1c4f1f7fe_20240212","","","9","94"
"3904","0","html-button-response","42","248660","0.0-42.0","640b129fbdcd3bb1c4f1f7fe","640b129fbdcd3bb1c4f1f7fe_20240212","","","8","96"
"3678","0","html-button-response","43","252845","0.0-43.0","640b129fbdcd3bb1c4f1f7fe","640b129fbdcd3bb1c4f1f7fe_20240212","","","6","158"
"2577","0","html-button-response","44","255929","0.0-44.0","640b129fbdcd3bb1c4f1f7fe","640b129fbdcd3bb1c4f1f7fe_20240212","","","1","166"
"6581","0","html-button-response","45","263027","0.0-45.0","640b129fbdcd3bb1c4f1f7fe","640b129fbdcd3bb1c4f1f7fe_20240212","","","5","177"
"2356","0","html-button-response","46","265893","0.0-46.0","640b129fbdcd3bb1c4f1f7fe","640b129fbdcd3bb1c4f1f7fe_20240212","","","1","53"
"2662","0","html-button-response","47","269059","0.0-47.0","640b129fbdcd3bb1c4f1f7fe","640b129fbdcd3bb1c4f1f7fe_20240212","","","6","159"
"2278","0","html-button-response","48","271845","0.0-48.0","640b129fbdcd3bb1c4f1f7fe","640b129fbdcd3bb1c4f1f7fe_20240212","","","9","104"
"3883","0","html-button-response","49","276233","0.0-49.0","640b129fbdcd3bb1c4f1f7fe","640b129fbdcd3bb1c4f1f7fe_20240212","","","9","107"
"2933","0","html-button-response","50","279675","0.0-50.0","640b129fbdcd3bb1c4f1f7fe","640b129fbdcd3bb1c4f1f7fe_20240212","","","2","93"
"2202","0","html-button-response","51","282381","0.0-51.0","640b129fbdcd3bb1c4f1f7fe","640b129fbdcd3bb1c4f1f7fe_20240212","","","8","101"
"2819","0","html-button-response","52","285705","0.0-52.0","640b129fbdcd3bb1c4f1f7fe","640b129fbdcd3bb1c4f1f7fe_20240212","","","1","91"
"3085","0","html-button-response","53","289295","0.0-53.0","640b129fbdcd3bb1c4f1f7fe","640b129fbdcd3bb1c4f1f7fe_20240212","","","1","108"
"4305","0","html-button-response","54","294105","0.0-54.0","640b129fbdcd3bb1c4f1f7fe","640b129fbdcd3bb1c4f1f7fe_20240212","","","1","51"
"3707","0","html-button-response","55","298317","0.0-55.0","640b129fbdcd3bb1c4f1f7fe","640b129fbdcd3bb1c4f1f7fe_20240212","","","1","49"
"2393","0","html-button-response","56","301223","0.0-56.0","640b129fbdcd3bb1c4f1f7fe","640b129fbdcd3bb1c4f1f7fe_20240212","","","1","41"
"2509","0","html-button-response","57","304241","0.0-57.0","640b129fbdcd3bb1c4f1f7fe","640b129fbdcd3bb1c4f1f7fe_20240212","","","1","182"
"2856","0","html-button-response","58","307603","0.0-58.0","640b129fbdcd3bb1c4f1f7fe","640b129fbdcd3bb1c4f1f7fe_20240212","","","1","42"
"2478","0","html-button-response","59","310593","0.0-59.0","640b129fbdcd3bb1c4f1f7fe","640b129fbdcd3bb1c4f1f7fe_20240212","","","8","103"
"2210","0","html-button-response","60","313315","0.0-60.0","640b129fbdcd3bb1c4f1f7fe","640b129fbdcd3bb1c4f1f7fe_20240212","","","1","99"
"2617","0","html-button-response","61","316441","0.0-61.0","640b129fbdcd3bb1c4f1f7fe","640b129fbdcd3bb1c4f1f7fe_20240212","","","1","50"
"2021","0","html-button-response","62","318971","0.0-62.0","640b129fbdcd3bb1c4f1f7fe","640b129fbdcd3bb1c4f1f7fe_20240212","","","1","38"
"2467","0","html-button-response","63","321941","0.0-63.0","640b129fbdcd3bb1c4f1f7fe","640b129fbdcd3bb1c4f1f7fe_20240212","","","1","52"
"2898","0","html-button-response","64","325345","0.0-64.0","640b129fbdcd3bb1c4f1f7fe","640b129fbdcd3bb1c4f1f7fe_20240212","","","1","165"
"2162","0","html-button-response","65","328013","0.0-65.0","640b129fbdcd3bb1c4f1f7fe","640b129fbdcd3bb1c4f1f7fe_20240212","","","1","54"
"1999","0","html-button-response","66","330523","0.0-66.0","640b129fbdcd3bb1c4f1f7fe","640b129fbdcd3bb1c4f1f7fe_20240212","","","",""
"8818","0","html-button-response","67","339850","0.0-67.0","640b129fbdcd3bb1c4f1f7fe","640b129fbdcd3bb1c4f1f7fe_20240212","","","9","10"
"2608","0","html-button-response","68","342965","0.0-68.0","640b129fbdcd3bb1c4f1f7fe","640b129fbdcd3bb1c4f1f7fe_20240212","","","9","121"
"1845","0","html-button-response","69","345317","0.0-69.0","640b129fbdcd3bb1c4f1f7fe","640b129fbdcd3bb1c4f1f7fe_20240212","","","9","18"
"2028","0","html-button-response","70","347859","0.0-70.0","640b129fbdcd3bb1c4f1f7fe","640b129fbdcd3bb1c4f1f7fe_20240212","","","9","126"
"1607","0","html-button-response","71","349977","0.0-71.0","640b129fbdcd3bb1c4f1f7fe","640b129fbdcd3bb1c4f1f7fe_20240212","","","9","8"
"2648","0","html-button-response","72","353129","0.0-72.0","640b129fbdcd3bb1c4f1f7fe","640b129fbdcd3bb1c4f1f7fe_20240212","","","9","66"
"2044","0","html-button-response","73","355679","0.0-73.0","640b129fbdcd3bb1c4f1f7fe","640b129fbdcd3bb1c4f1f7fe_20240212","","","9","59"
"3865","0","html-button-response","74","360056","0.0-74.0","640b129fbdcd3bb1c4f1f7fe","640b129fbdcd3bb1c4f1f7fe_20240212","","","9","15"
"2366","0","html-button-response","75","362929","0.0-75.0","640b129fbdcd3bb1c4f1f7fe","640b129fbdcd3bb1c4f1f7fe_20240212","","","9","4"
"3407","0","html-button-response","76","366840","0.0-76.0","640b129fbdcd3bb1c4f1f7fe","640b129fbdcd3bb1c4f1f7fe_20240212","","","5","12"
"2201","0","html-button-response","77","369545","0.0-77.0","640b129fbdcd3bb1c4f1f7fe","640b129fbdcd3bb1c4f1f7fe_20240212","","","9","55"
"2352","0","html-button-response","78","372402","0.0-78.0","640b129fbdcd3bb1c4f1f7fe","640b129fbdcd3bb1c4f1f7fe_20240212","","","9","120"
"2505","0","html-button-response","79","375412","0.0-79.0","640b129fbdcd3bb1c4f1f7fe","640b129fbdcd3bb1c4f1f7fe_20240212","","","9","64"
"2600","0","html-button-response","80","378522","0.0-80.0","640b129fbdcd3bb1c4f1f7fe","640b129fbdcd3bb1c4f1f7fe_20240212","","","1","11"
"2108","0","html-button-response","81","381138","0.0-81.0","640b129fbdcd3bb1c4f1f7fe","640b129fbdcd3bb1c4f1f7fe_20240212","","","9","2"
"2217","0","html-button-response","82","383858","0.0-82.0","640b129fbdcd3bb1c4f1f7fe","640b129fbdcd3bb1c4f1f7fe_20240212","","","9","119"
"2108","0","html-button-response","83","386470","0.0-83.0","640b129fbdcd3bb1c4f1f7fe","640b129fbdcd3bb1c4f1f7fe_20240212","","","9","124"
"2174","0","html-button-response","84","389150","0.0-84.0","640b129fbdcd3bb1c4f1f7fe","640b129fbdcd3bb1c4f1f7fe_20240212","","","9","57"
"1921","0","html-button-response","85","391578","0.0-85.0","640b129fbdcd3bb1c4f1f7fe","640b129fbdcd3bb1c4f1f7fe_20240212","","","9","123"
"2006","0","html-button-response","86","394089","0.0-86.0","640b129fbdcd3bb1c4f1f7fe","640b129fbdcd3bb1c4f1f7fe_20240212","","","9","129"
"2838","0","html-button-response","87","397430","0.0-87.0","640b129fbdcd3bb1c4f1f7fe","640b129fbdcd3bb1c4f1f7fe_20240212","","","2","9"
"2194","0","html-button-response","88","400126","0.0-88.0","640b129fbdcd3bb1c4f1f7fe","640b129fbdcd3bb1c4f1f7fe_20240212","","","9","130"
"3204","0","html-button-response","89","403838","0.0-89.0","640b129fbdcd3bb1c4f1f7fe","640b129fbdcd3bb1c4f1f7fe_20240212","","","9","127"
"2039","0","html-button-response","90","406382","0.0-90.0","640b129fbdcd3bb1c4f1f7fe","640b129fbdcd3bb1c4f1f7fe_20240212","","","9","118"
"1950","0","html-button-response","91","408838","0.0-91.0","640b129fbdcd3bb1c4f1f7fe","640b129fbdcd3bb1c4f1f7fe_20240212","","","9","122"
"2137","0","html-button-response","92","411483","0.0-92.0","640b129fbdcd3bb1c4f1f7fe","640b129fbdcd3bb1c4f1f7fe_20240212","","","9","113"
"2173","0","html-button-response","93","414160","0.0-93.0","640b129fbdcd3bb1c4f1f7fe","640b129fbdcd3bb1c4f1f7fe_20240212","","","9","112"
"3117","0","html-button-response","94","417787","0.0-94.0","640b129fbdcd3bb1c4f1f7fe","640b129fbdcd3bb1c4f1f7fe_20240212","","","3","16"
"3721","0","html-button-response","95","422013","0.0-95.0","640b129fbdcd3bb1c4f1f7fe","640b129fbdcd3bb1c4f1f7fe_20240212","","","3","63"
"2730","0","html-button-response","96","425253","0.0-96.0","640b129fbdcd3bb1c4f1f7fe","640b129fbdcd3bb1c4f1f7fe_20240212","","","9","116"
"1980","0","html-button-response","97","427744","0.0-97.0","640b129fbdcd3bb1c4f1f7fe","640b129fbdcd3bb1c4f1f7fe_20240212","","","9","117"
"5322","0","html-button-response","98","433578","0.0-98.0","640b129fbdcd3bb1c4f1f7fe","640b129fbdcd3bb1c4f1f7fe_20240212","","","8","71"
"2582","0","html-button-response","99","436668","0.0-99.0","640b129fbdcd3bb1c4f1f7fe","640b129fbdcd3bb1c4f1f7fe_20240212","","","8","72"
"2086","0","html-button-response","100","439261","0.0-100.0","640b129fbdcd3bb1c4f1f7fe","640b129fbdcd3bb1c4f1f7fe_20240212","","","8","69"
"1927","0","html-button-response","101","441693","0.0-101.0","640b129fbdcd3bb1c4f1f7fe","640b129fbdcd3bb1c4f1f7fe_20240212","","","8","58"
"2745","0","html-button-response","102","444945","0.0-102.0","640b129fbdcd3bb1c4f1f7fe","640b129fbdcd3bb1c4f1f7fe_20240212","","","9","111"
"4726","0","html-button-response","103","450174","0.0-103.0","640b129fbdcd3bb1c4f1f7fe","640b129fbdcd3bb1c4f1f7fe_20240212","","","5","6"
"3134","0","html-button-response","104","453812","0.0-104.0","640b129fbdcd3bb1c4f1f7fe","640b129fbdcd3bb1c4f1f7fe_20240212","","","9","61"
"2177","0","html-button-response","105","456494","0.0-105.0","640b129fbdcd3bb1c4f1f7fe","640b129fbdcd3bb1c4f1f7fe_20240212","","","9","115"
"2242","0","html-button-response","106","459248","0.0-106.0","640b129fbdcd3bb1c4f1f7fe","640b129fbdcd3bb1c4f1f7fe_20240212","","","9","125"
"2108","0","html-button-response","107","461862","0.0-107.0","640b129fbdcd3bb1c4f1f7fe","640b129fbdcd3bb1c4f1f7fe_20240212","","","9","128"
"2287","0","html-button-response","108","464656","0.0-108.0","640b129fbdcd3bb1c4f1f7fe","640b129fbdcd3bb1c4f1f7fe_20240212","","","9","65"
"2275","0","html-button-response","109","467438","0.0-109.0","640b129fbdcd3bb1c4f1f7fe","640b129fbdcd3bb1c4f1f7fe_20240212","","","7","70"
"2186","0","html-button-response","110","470134","0.0-110.0","640b129fbdcd3bb1c4f1f7fe","640b129fbdcd3bb1c4f1f7fe_20240212","","","9","109"
"2052","0","html-button-response","111","472688","0.0-111.0","640b129fbdcd3bb1c4f1f7fe","640b129fbdcd3bb1c4f1f7fe_20240212","","","9","110"
"2115","0","html-button-response","112","475312","0.0-112.0","640b129fbdcd3bb1c4f1f7fe","640b129fbdcd3bb1c4f1f7fe_20240212","","","9","67"
"2631","0","html-button-response","113","478450","0.0-113.0","640b129fbdcd3bb1c4f1f7fe","640b129fbdcd3bb1c4f1f7fe_20240212","","","6","68"
"2786","0","html-button-response","114","481746","0.0-114.0","640b129fbdcd3bb1c4f1f7fe","640b129fbdcd3bb1c4f1f7fe_20240212","","","6","62"
"2194","0","html-button-response","115","484448","0.0-115.0","640b129fbdcd3bb1c4f1f7fe","640b129fbdcd3bb1c4f1f7fe_20240212","","","7","114"
"3565","0","html-button-response","116","488518","0.0-116.0","640b129fbdcd3bb1c4f1f7fe","640b129fbdcd3bb1c4f1f7fe_20240212","","","1","60"
"2380","0","html-button-response","117","491404","0.0-117.0","640b129fbdcd3bb1c4f1f7fe","640b129fbdcd3bb1c4f1f7fe_20240212","","","1","1"
"2930","0","html-button-response","118","494844","0.0-118.0","640b129fbdcd3bb1c4f1f7fe","640b129fbdcd3bb1c4f1f7fe_20240212","","","8","56"
"2298","0","html-button-response","119","497650","0.0-119.0","640b129fbdcd3bb1c4f1f7fe","640b129fbdcd3bb1c4f1f7fe_20240212","","","5","3"
"2441","0","html-button-response","120","500604","0.0-120.0","640b129fbdcd3bb1c4f1f7fe","640b129fbdcd3bb1c4f1f7fe_20240212","","","6","13"
"2228","0","html-button-response","121","503342","0.0-121.0","640b129fbdcd3bb1c4f1f7fe","640b129fbdcd3bb1c4f1f7fe_20240212","","","9","5"
"2853","0","html-button-response","122","506706","0.0-122.0","640b129fbdcd3bb1c4f1f7fe","640b129fbdcd3bb1c4f1f7fe_20240212","","","1","14"
"2588","0","html-button-response","123","509798","0.0-123.0","640b129fbdcd3bb1c4f1f7fe","640b129fbdcd3bb1c4f1f7fe_20240212","","","9","131"
"3473","0","html-button-response","124","513778","0.0-124.0","640b129fbdcd3bb1c4f1f7fe","640b129fbdcd3bb1c4f1f7fe_20240212","","","7","17"
"2196","0","html-button-response","125","516480","0.0-125.0","640b129fbdcd3bb1c4f1f7fe","640b129fbdcd3bb1c4f1f7fe_20240212","","","6","7"
"1301","0","html-button-response","126","518284","0.0-126.0","640b129fbdcd3bb1c4f1f7fe","640b129fbdcd3bb1c4f1f7fe_20240212","","","",""
"2952","0","html-button-response","127","521748","0.0-127.0","640b129fbdcd3bb1c4f1f7fe","640b129fbdcd3bb1c4f1f7fe_20240212","","","9","28"
"1874","0","html-button-response","128","524132","0.0-128.0","640b129fbdcd3bb1c4f1f7fe","640b129fbdcd3bb1c4f1f7fe_20240212","","","9","19"
"2306","0","html-button-response","129","526954","0.0-129.0","640b129fbdcd3bb1c4f1f7fe","640b129fbdcd3bb1c4f1f7fe_20240212","","","9","180"
"2034","0","html-button-response","130","529500","0.0-130.0","640b129fbdcd3bb1c4f1f7fe","640b129fbdcd3bb1c4f1f7fe_20240212","","","9","152"
"2492","0","html-button-response","131","532500","0.0-131.0","640b129fbdcd3bb1c4f1f7fe","640b129fbdcd3bb1c4f1f7fe_20240212","","","9","75"
"1968","0","html-button-response","132","534972","0.0-132.0","640b129fbdcd3bb1c4f1f7fe","640b129fbdcd3bb1c4f1f7fe_20240212","","","9","132"
"1743","0","html-button-response","133","537220","0.0-133.0","640b129fbdcd3bb1c4f1f7fe","640b129fbdcd3bb1c4f1f7fe_20240212","","","9","81"
"3998","0","html-button-response","134","541722","0.0-134.0","640b129fbdcd3bb1c4f1f7fe","640b129fbdcd3bb1c4f1f7fe_20240212","","","7","21"
"2163","0","html-button-response","135","544398","0.0-135.0","640b129fbdcd3bb1c4f1f7fe","640b129fbdcd3bb1c4f1f7fe_20240212","","","8","22"
"4620","0","html-button-response","136","549528","0.0-136.0","640b129fbdcd3bb1c4f1f7fe","640b129fbdcd3bb1c4f1f7fe_20240212","","","5","34"
"1938","0","html-button-response","137","551972","0.0-137.0","640b129fbdcd3bb1c4f1f7fe","640b129fbdcd3bb1c4f1f7fe_20240212","","","6","36"
"2205","0","html-button-response","138","554688","0.0-138.0","640b129fbdcd3bb1c4f1f7fe","640b129fbdcd3bb1c4f1f7fe_20240212","","","9","145"
"2050","0","html-button-response","139","557246","0.0-139.0","640b129fbdcd3bb1c4f1f7fe","640b129fbdcd3bb1c4f1f7fe_20240212","","","9","138"
"2595","0","html-button-response","140","560352","0.0-140.0","640b129fbdcd3bb1c4f1f7fe","640b129fbdcd3bb1c4f1f7fe_20240212","","","9","179"
"2084","0","html-button-response","141","562941","0.0-141.0","640b129fbdcd3bb1c4f1f7fe","640b129fbdcd3bb1c4f1f7fe_20240212","","","9","25"
"2004","0","html-button-response","142","565454","0.0-142.0","640b129fbdcd3bb1c4f1f7fe","640b129fbdcd3bb1c4f1f7fe_20240212","","","9","84"
"2853","0","html-button-response","143","568812","0.0-143.0","640b129fbdcd3bb1c4f1f7fe","640b129fbdcd3bb1c4f1f7fe_20240212","","","9","151"
"1828","0","html-button-response","144","571148","0.0-144.0","640b129fbdcd3bb1c4f1f7fe","640b129fbdcd3bb1c4f1f7fe_20240212","","","9","32"
"2149","0","html-button-response","145","573812","0.0-145.0","640b129fbdcd3bb1c4f1f7fe","640b129fbdcd3bb1c4f1f7fe_20240212","","","9","142"
"1805","0","html-button-response","146","576130","0.0-146.0","640b129fbdcd3bb1c4f1f7fe","640b129fbdcd3bb1c4f1f7fe_20240212","","","9","31"
"2038","0","html-button-response","147","578674","0.0-147.0","640b129fbdcd3bb1c4f1f7fe","640b129fbdcd3bb1c4f1f7fe_20240212","","","9","154"
"2036","0","html-button-response","148","581221","0.0-148.0","640b129fbdcd3bb1c4f1f7fe","640b129fbdcd3bb1c4f1f7fe_20240212","","","9","86"
"2064","0","html-button-response","149","583792","0.0-149.0","640b129fbdcd3bb1c4f1f7fe","640b129fbdcd3bb1c4f1f7fe_20240212","","","9","85"
"1934","0","html-button-response","150","586239","0.0-150.0","640b129fbdcd3bb1c4f1f7fe","640b129fbdcd3bb1c4f1f7fe_20240212","","","9","30"
"1879","0","html-button-response","151","588623","0.0-151.0","640b129fbdcd3bb1c4f1f7fe","640b129fbdcd3bb1c4f1f7fe_20240212","","","9","79"
"1855","0","html-button-response","152","590984","0.0-152.0","640b129fbdcd3bb1c4f1f7fe","640b129fbdcd3bb1c4f1f7fe_20240212","","","9","149"
"1822","0","html-button-response","153","593317","0.0-153.0","640b129fbdcd3bb1c4f1f7fe","640b129fbdcd3bb1c4f1f7fe_20240212","","","9","150"
"1810","0","html-button-response","154","595635","0.0-154.0","640b129fbdcd3bb1c4f1f7fe","640b129fbdcd3bb1c4f1f7fe_20240212","","","9","90"
"1805","0","html-button-response","155","597945","0.0-155.0","640b129fbdcd3bb1c4f1f7fe","640b129fbdcd3bb1c4f1f7fe_20240212","","","9","143"
"1993","0","html-button-response","156","600447","0.0-156.0","640b129fbdcd3bb1c4f1f7fe","640b129fbdcd3bb1c4f1f7fe_20240212","","","9","23"
"1983","0","html-button-response","157","602933","0.0-157.0","640b129fbdcd3bb1c4f1f7fe","640b129fbdcd3bb1c4f1f7fe_20240212","","","9","135"
"1944","0","html-button-response","158","605389","0.0-158.0","640b129fbdcd3bb1c4f1f7fe","640b129fbdcd3bb1c4f1f7fe_20240212","","","9","76"
"3101","0","html-button-response","159","608995","0.0-159.0","640b129fbdcd3bb1c4f1f7fe","640b129fbdcd3bb1c4f1f7fe_20240212","","","9","35"
"1722","0","html-button-response","160","611223","0.0-160.0","640b129fbdcd3bb1c4f1f7fe","640b129fbdcd3bb1c4f1f7fe_20240212","","","9","74"
"1633","0","html-button-response","161","613359","0.0-161.0","640b129fbdcd3bb1c4f1f7fe","640b129fbdcd3bb1c4f1f7fe_20240212","","","9","80"
"2413","0","html-button-response","162","616279","0.0-162.0","640b129fbdcd3bb1c4f1f7fe","640b129fbdcd3bb1c4f1f7fe_20240212","","","9","137"
"1661","0","html-button-response","163","618449","0.0-163.0","640b129fbdcd3bb1c4f1f7fe","640b129fbdcd3bb1c4f1f7fe_20240212","","","9","78"
"1680","0","html-button-response","164","620631","0.0-164.0","640b129fbdcd3bb1c4f1f7fe","640b129fbdcd3bb1c4f1f7fe_20240212","","","9","136"
"2221","0","html-button-response","165","623361","0.0-165.0","640b129fbdcd3bb1c4f1f7fe","640b129fbdcd3bb1c4f1f7fe_20240212","","","9","73"
"1626","0","html-button-response","166","625497","0.0-166.0","640b129fbdcd3bb1c4f1f7fe","640b129fbdcd3bb1c4f1f7fe_20240212","","","9","148"
"2426","0","html-button-response","167","628429","0.0-167.0","640b129fbdcd3bb1c4f1f7fe","640b129fbdcd3bb1c4f1f7fe_20240212","","","9","29"
"2290","0","html-button-response","168","631223","0.0-168.0","640b129fbdcd3bb1c4f1f7fe","640b129fbdcd3bb1c4f1f7fe_20240212","","","9","77"
"2020","0","html-button-response","169","633755","0.0-169.0","640b129fbdcd3bb1c4f1f7fe","640b129fbdcd3bb1c4f1f7fe_20240212","","","6","27"
"3625","0","html-button-response","170","637885","0.0-170.0","640b129fbdcd3bb1c4f1f7fe","640b129fbdcd3bb1c4f1f7fe_20240212","","","9","134"
"1868","0","html-button-response","171","640259","0.0-171.0","640b129fbdcd3bb1c4f1f7fe","640b129fbdcd3bb1c4f1f7fe_20240212","","","9","82"
"3224","0","html-button-response","172","643995","0.0-172.0","640b129fbdcd3bb1c4f1f7fe","640b129fbdcd3bb1c4f1f7fe_20240212","","","9","87"
"2417","0","html-button-response","173","646925","0.0-173.0","640b129fbdcd3bb1c4f1f7fe","640b129fbdcd3bb1c4f1f7fe_20240212","","","9","89"
"2728","0","html-button-response","174","650156","0.0-174.0","640b129fbdcd3bb1c4f1f7fe","640b129fbdcd3bb1c4f1f7fe_20240212","","","9","24"
"2691","0","html-button-response","175","653354","0.0-175.0","640b129fbdcd3bb1c4f1f7fe","640b129fbdcd3bb1c4f1f7fe_20240212","","","9","140"
"1840","0","html-button-response","176","655707","0.0-176.0","640b129fbdcd3bb1c4f1f7fe","640b129fbdcd3bb1c4f1f7fe_20240212","","","9","144"
"2732","0","html-button-response","177","658943","0.0-177.0","640b129fbdcd3bb1c4f1f7fe","640b129fbdcd3bb1c4f1f7fe_20240212","","","9","141"
"1860","0","html-button-response","178","661308","0.0-178.0","640b129fbdcd3bb1c4f1f7fe","640b129fbdcd3bb1c4f1f7fe_20240212","","","9","139"
"1767","0","html-button-response","179","663591","0.0-179.0","640b129fbdcd3bb1c4f1f7fe","640b129fbdcd3bb1c4f1f7fe_20240212","","","9","88"
"4140","0","html-button-response","180","668236","0.0-180.0","640b129fbdcd3bb1c4f1f7fe","640b129fbdcd3bb1c4f1f7fe_20240212","","","1","20"
"2433","0","html-button-response","181","671180","0.0-181.0","640b129fbdcd3bb1c4f1f7fe","640b129fbdcd3bb1c4f1f7fe_20240212","","","9","153"
"3143","0","html-button-response","182","674837","0.0-182.0","640b129fbdcd3bb1c4f1f7fe","640b129fbdcd3bb1c4f1f7fe_20240212","","","9","146"
"2272","0","html-button-response","183","677620","0.0-183.0","640b129fbdcd3bb1c4f1f7fe","640b129fbdcd3bb1c4f1f7fe_20240212","","","9","178"
"1966","0","html-button-response","184","680091","0.0-184.0","640b129fbdcd3bb1c4f1f7fe","640b129fbdcd3bb1c4f1f7fe_20240212","","","9","33"
"1785","0","html-button-response","185","682380","0.0-185.0","640b129fbdcd3bb1c4f1f7fe","640b129fbdcd3bb1c4f1f7fe_20240212","","","9","147"
"1729","0","html-button-response","186","684616","0.0-186.0","640b129fbdcd3bb1c4f1f7fe","640b129fbdcd3bb1c4f1f7fe_20240212","","","9","133"
"3181","0","html-button-response","187","688304","0.0-187.0","640b129fbdcd3bb1c4f1f7fe","640b129fbdcd3bb1c4f1f7fe_20240212","","","5","26"
"2494","0","html-button-response","188","691306","0.0-188.0","640b129fbdcd3bb1c4f1f7fe","640b129fbdcd3bb1c4f1f7fe_20240212","","","9","83"
"2705","0","html-button-response","189","694518","0.0-189.0","640b129fbdcd3bb1c4f1f7fe","640b129fbdcd3bb1c4f1f7fe_20240212","","Thank you. You have reached the end. 
                       <br>Click the button below to reveal your compensation.
                        <br><br>","",""
