"rt","response","trial_type","trial_index","time_elapsed","internal_node_id","part_ID","ID_DATE","screen_id","stimulus","rating","img_id"
"3294","0","html-button-response","0","3300","0.0-0.0","65b614c6caafea0ac900163c","65b614c6caafea0ac900163c_20240212","","","",""
"5871","[object Object]","survey-html-form","1","9702","0.0-1.0","65b614c6caafea0ac900163c","65b614c6caafea0ac900163c_20240212","prolific_id_page","","",""
"8718","0","html-button-response","2","18424","0.0-2.0","65b614c6caafea0ac900163c","65b614c6caafea0ac900163c_20240212","","","",""
"8984","0","html-button-response","3","27913","0.0-3.0","65b614c6caafea0ac900163c","65b614c6caafea0ac900163c_20240212","","
<div>
Great! You will now go on to rate the faces.
<br><br>
</div>
","",""
"19667","0","html-button-response","4","48109","0.0-4.0","65b614c6caafea0ac900163c","65b614c6caafea0ac900163c_20240212","","","6","62"
"10178","0","html-button-response","5","58794","0.0-5.0","65b614c6caafea0ac900163c","65b614c6caafea0ac900163c_20240212","","","8","69"
"12615","0","html-button-response","6","71918","0.0-6.0","65b614c6caafea0ac900163c","65b614c6caafea0ac900163c_20240212","","","8","11"
"9096","0","html-button-response","7","81520","0.0-7.0","65b614c6caafea0ac900163c","65b614c6caafea0ac900163c_20240212","","","3","5"
"5963","0","html-button-response","8","87991","0.0-8.0","65b614c6caafea0ac900163c","65b614c6caafea0ac900163c_20240212","","","2","59"
"5926","0","html-button-response","9","94423","0.0-9.0","65b614c6caafea0ac900163c","65b614c6caafea0ac900163c_20240212","","","6","128"
"3397","0","html-button-response","10","98328","0.0-10.0","65b614c6caafea0ac900163c","65b614c6caafea0ac900163c_20240212","","","3","118"
"7864","0","html-button-response","11","106700","0.0-11.0","65b614c6caafea0ac900163c","65b614c6caafea0ac900163c_20240212","","","9","12"
"7710","0","html-button-response","12","114916","0.0-12.0","65b614c6caafea0ac900163c","65b614c6caafea0ac900163c_20240212","","","7","115"
"5118","0","html-button-response","13","120540","0.0-13.0","65b614c6caafea0ac900163c","65b614c6caafea0ac900163c_20240212","","","7","111"
"5345","0","html-button-response","14","126393","0.0-14.0","65b614c6caafea0ac900163c","65b614c6caafea0ac900163c_20240212","","","8","121"
"13381","0","html-button-response","15","140281","0.0-15.0","65b614c6caafea0ac900163c","65b614c6caafea0ac900163c_20240212","","","1","6"
"6361","0","html-button-response","16","147150","0.0-16.0","65b614c6caafea0ac900163c","65b614c6caafea0ac900163c_20240212","","","1","58"
"2927","0","html-button-response","17","150584","0.0-17.0","65b614c6caafea0ac900163c","65b614c6caafea0ac900163c_20240212","","","1","60"
"2844","0","html-button-response","18","153935","0.0-18.0","65b614c6caafea0ac900163c","65b614c6caafea0ac900163c_20240212","","","2","109"
"5297","0","html-button-response","19","159739","0.0-19.0","65b614c6caafea0ac900163c","65b614c6caafea0ac900163c_20240212","","","1","71"
"3394","0","html-button-response","20","163641","0.0-20.0","65b614c6caafea0ac900163c","65b614c6caafea0ac900163c_20240212","","","3","110"
"3079","0","html-button-response","21","167227","0.0-21.0","65b614c6caafea0ac900163c","65b614c6caafea0ac900163c_20240212","","","6","64"
"4793","0","html-button-response","22","172527","0.0-22.0","65b614c6caafea0ac900163c","65b614c6caafea0ac900163c_20240212","","","8","2"
"11564","0","html-button-response","23","184598","0.0-23.0","65b614c6caafea0ac900163c","65b614c6caafea0ac900163c_20240212","","","8","122"
"7750","0","html-button-response","24","192854","0.0-24.0","65b614c6caafea0ac900163c","65b614c6caafea0ac900163c_20240212","","","2","70"
"7896","0","html-button-response","25","201258","0.0-25.0","65b614c6caafea0ac900163c","65b614c6caafea0ac900163c_20240212","","","8","15"
"3411","0","html-button-response","26","205176","0.0-26.0","65b614c6caafea0ac900163c","65b614c6caafea0ac900163c_20240212","","","8","56"
"2944","0","html-button-response","27","208626","0.0-27.0","65b614c6caafea0ac900163c","65b614c6caafea0ac900163c_20240212","","","2","113"
"3978","0","html-button-response","28","213111","0.0-28.0","65b614c6caafea0ac900163c","65b614c6caafea0ac900163c_20240212","","","6","14"
"4748","0","html-button-response","29","218365","0.0-29.0","65b614c6caafea0ac900163c","65b614c6caafea0ac900163c_20240212","","","6","117"
"4547","0","html-button-response","30","223419","0.0-30.0","65b614c6caafea0ac900163c","65b614c6caafea0ac900163c_20240212","","","7","66"
"2509","0","html-button-response","31","226436","0.0-31.0","65b614c6caafea0ac900163c","65b614c6caafea0ac900163c_20240212","","","6","13"
"2813","0","html-button-response","32","229754","0.0-32.0","65b614c6caafea0ac900163c","65b614c6caafea0ac900163c_20240212","","","4","72"
"3429","0","html-button-response","33","233689","0.0-33.0","65b614c6caafea0ac900163c","65b614c6caafea0ac900163c_20240212","","","3","10"
"3829","0","html-button-response","34","238025","0.0-34.0","65b614c6caafea0ac900163c","65b614c6caafea0ac900163c_20240212","","","3","17"
"3094","0","html-button-response","35","241625","0.0-35.0","65b614c6caafea0ac900163c","65b614c6caafea0ac900163c_20240212","","","3","124"
"2813","0","html-button-response","36","244945","0.0-36.0","65b614c6caafea0ac900163c","65b614c6caafea0ac900163c_20240212","","","3","55"
"3360","0","html-button-response","37","248811","0.0-37.0","65b614c6caafea0ac900163c","65b614c6caafea0ac900163c_20240212","","","2","18"
"3662","0","html-button-response","38","252978","0.0-38.0","65b614c6caafea0ac900163c","65b614c6caafea0ac900163c_20240212","","","3","57"
"2697","0","html-button-response","39","256181","0.0-39.0","65b614c6caafea0ac900163c","65b614c6caafea0ac900163c_20240212","","","2","114"
"2731","0","html-button-response","40","259419","0.0-40.0","65b614c6caafea0ac900163c","65b614c6caafea0ac900163c_20240212","","","2","130"
"2911","0","html-button-response","41","262837","0.0-41.0","65b614c6caafea0ac900163c","65b614c6caafea0ac900163c_20240212","","","3","123"
"3028","0","html-button-response","42","266372","0.0-42.0","65b614c6caafea0ac900163c","65b614c6caafea0ac900163c_20240212","","","2","65"
"3161","0","html-button-response","43","270039","0.0-43.0","65b614c6caafea0ac900163c","65b614c6caafea0ac900163c_20240212","","","2","7"
"2893","0","html-button-response","44","273439","0.0-44.0","65b614c6caafea0ac900163c","65b614c6caafea0ac900163c_20240212","","","2","3"
"2596","0","html-button-response","45","276541","0.0-45.0","65b614c6caafea0ac900163c","65b614c6caafea0ac900163c_20240212","","","2","119"
"2862","0","html-button-response","46","279910","0.0-46.0","65b614c6caafea0ac900163c","65b614c6caafea0ac900163c_20240212","","","1","112"
"2496","0","html-button-response","47","282912","0.0-47.0","65b614c6caafea0ac900163c","65b614c6caafea0ac900163c_20240212","","","2","126"
"2661","0","html-button-response","48","286079","0.0-48.0","65b614c6caafea0ac900163c","65b614c6caafea0ac900163c_20240212","","","2","116"
"5730","0","html-button-response","49","292315","0.0-49.0","65b614c6caafea0ac900163c","65b614c6caafea0ac900163c_20240212","","","5","68"
"2928","0","html-button-response","50","295749","0.0-50.0","65b614c6caafea0ac900163c","65b614c6caafea0ac900163c_20240212","","","2","8"
"4163","0","html-button-response","51","300417","0.0-51.0","65b614c6caafea0ac900163c","65b614c6caafea0ac900163c_20240212","","","8","1"
"3530","0","html-button-response","52","304454","0.0-52.0","65b614c6caafea0ac900163c","65b614c6caafea0ac900163c_20240212","","","7","125"
"10462","0","html-button-response","53","315424","0.0-53.0","65b614c6caafea0ac900163c","65b614c6caafea0ac900163c_20240212","","","8","120"
"3365","0","html-button-response","54","319296","0.0-54.0","65b614c6caafea0ac900163c","65b614c6caafea0ac900163c_20240212","","","2","4"
"2728","0","html-button-response","55","322531","0.0-55.0","65b614c6caafea0ac900163c","65b614c6caafea0ac900163c_20240212","","","2","129"
"5610","0","html-button-response","56","328648","0.0-56.0","65b614c6caafea0ac900163c","65b614c6caafea0ac900163c_20240212","","","1","16"
"4831","0","html-button-response","57","333984","0.0-57.0","65b614c6caafea0ac900163c","65b614c6caafea0ac900163c_20240212","","","9","9"
"3529","0","html-button-response","58","338020","0.0-58.0","65b614c6caafea0ac900163c","65b614c6caafea0ac900163c_20240212","","","8","63"
"3044","0","html-button-response","59","341570","0.0-59.0","65b614c6caafea0ac900163c","65b614c6caafea0ac900163c_20240212","","","5","127"
"2611","0","html-button-response","60","344687","0.0-60.0","65b614c6caafea0ac900163c","65b614c6caafea0ac900163c_20240212","","","2","61"
"3028","0","html-button-response","61","348222","0.0-61.0","65b614c6caafea0ac900163c","65b614c6caafea0ac900163c_20240212","","","1","67"
"3796","0","html-button-response","62","352525","0.0-62.0","65b614c6caafea0ac900163c","65b614c6caafea0ac900163c_20240212","","","1","131"
"7648","0","html-button-response","63","360678","0.0-63.0","65b614c6caafea0ac900163c","65b614c6caafea0ac900163c_20240212","","","",""
"5759","0","html-button-response","64","366949","0.0-64.0","65b614c6caafea0ac900163c","65b614c6caafea0ac900163c_20240212","","","9","108"
"4761","0","html-button-response","65","372217","0.0-65.0","65b614c6caafea0ac900163c","65b614c6caafea0ac900163c_20240212","","","5","37"
"5095","0","html-button-response","66","377818","0.0-66.0","65b614c6caafea0ac900163c","65b614c6caafea0ac900163c_20240212","","","8","107"
"3266","0","html-button-response","67","381589","0.0-67.0","65b614c6caafea0ac900163c","65b614c6caafea0ac900163c_20240212","","","6","158"
"2979","0","html-button-response","68","385074","0.0-68.0","65b614c6caafea0ac900163c","65b614c6caafea0ac900163c_20240212","","","6","157"
"8515","0","html-button-response","69","394095","0.0-69.0","65b614c6caafea0ac900163c","65b614c6caafea0ac900163c_20240212","","","8","183"
"11598","0","html-button-response","70","406200","0.0-70.0","65b614c6caafea0ac900163c","65b614c6caafea0ac900163c_20240212","","","7","181"
"8923","0","html-button-response","71","415630","0.0-71.0","65b614c6caafea0ac900163c","65b614c6caafea0ac900163c_20240212","","","4","38"
"3852","0","html-button-response","72","419989","0.0-72.0","65b614c6caafea0ac900163c","65b614c6caafea0ac900163c_20240212","","","9","96"
"2861","0","html-button-response","73","423356","0.0-73.0","65b614c6caafea0ac900163c","65b614c6caafea0ac900163c_20240212","","","8","156"
"4013","0","html-button-response","74","427876","0.0-74.0","65b614c6caafea0ac900163c","65b614c6caafea0ac900163c_20240212","","","6","46"
"5029","0","html-button-response","75","433412","0.0-75.0","65b614c6caafea0ac900163c","65b614c6caafea0ac900163c_20240212","","","7","91"
"6465","0","html-button-response","76","440381","0.0-76.0","65b614c6caafea0ac900163c","65b614c6caafea0ac900163c_20240212","","","7","47"
"9532","0","html-button-response","77","450418","0.0-77.0","65b614c6caafea0ac900163c","65b614c6caafea0ac900163c_20240212","","","3","40"
"5299","0","html-button-response","78","456224","0.0-78.0","65b614c6caafea0ac900163c","65b614c6caafea0ac900163c_20240212","","","9","93"
"4745","0","html-button-response","79","461475","0.0-79.0","65b614c6caafea0ac900163c","65b614c6caafea0ac900163c_20240212","","","9","164"
"4796","0","html-button-response","80","466778","0.0-80.0","65b614c6caafea0ac900163c","65b614c6caafea0ac900163c_20240212","","","9","160"
"7196","0","html-button-response","81","474481","0.0-81.0","65b614c6caafea0ac900163c","65b614c6caafea0ac900163c_20240212","","","9","43"
"3344","0","html-button-response","82","478331","0.0-82.0","65b614c6caafea0ac900163c","65b614c6caafea0ac900163c_20240212","","","9","155"
"2996","0","html-button-response","83","481835","0.0-83.0","65b614c6caafea0ac900163c","65b614c6caafea0ac900163c_20240212","","","9","106"
"4528","0","html-button-response","84","486867","0.0-84.0","65b614c6caafea0ac900163c","65b614c6caafea0ac900163c_20240212","","","9","97"
"3950","0","html-button-response","85","491322","0.0-85.0","65b614c6caafea0ac900163c","65b614c6caafea0ac900163c_20240212","","","5","162"
"5909","0","html-button-response","86","497737","0.0-86.0","65b614c6caafea0ac900163c","65b614c6caafea0ac900163c_20240212","","","6","159"
"3467","0","html-button-response","87","501709","0.0-87.0","65b614c6caafea0ac900163c","65b614c6caafea0ac900163c_20240212","","","6","166"
"3696","0","html-button-response","88","505912","0.0-88.0","65b614c6caafea0ac900163c","65b614c6caafea0ac900163c_20240212","","","7","92"
"7463","0","html-button-response","89","513880","0.0-89.0","65b614c6caafea0ac900163c","65b614c6caafea0ac900163c_20240212","","","4","182"
"6528","0","html-button-response","90","520915","0.0-90.0","65b614c6caafea0ac900163c","65b614c6caafea0ac900163c_20240212","","","4","49"
"3716","0","html-button-response","91","525136","0.0-91.0","65b614c6caafea0ac900163c","65b614c6caafea0ac900163c_20240212","","","3","173"
"9947","0","html-button-response","92","535590","0.0-92.0","65b614c6caafea0ac900163c","65b614c6caafea0ac900163c_20240212","","","2","52"
"6763","0","html-button-response","93","542859","0.0-93.0","65b614c6caafea0ac900163c","65b614c6caafea0ac900163c_20240212","","","9","163"
"7800","0","html-button-response","94","551166","0.0-94.0","65b614c6caafea0ac900163c","65b614c6caafea0ac900163c_20240212","","","8","175"
"4077","0","html-button-response","95","555750","0.0-95.0","65b614c6caafea0ac900163c","65b614c6caafea0ac900163c_20240212","","","2","39"
"3566","0","html-button-response","96","559820","0.0-96.0","65b614c6caafea0ac900163c","65b614c6caafea0ac900163c_20240212","","","8","95"
"3843","0","html-button-response","97","564170","0.0-97.0","65b614c6caafea0ac900163c","65b614c6caafea0ac900163c_20240212","","","8","48"
"4063","0","html-button-response","98","568739","0.0-98.0","65b614c6caafea0ac900163c","65b614c6caafea0ac900163c_20240212","","","3","174"
"3644","0","html-button-response","99","572890","0.0-99.0","65b614c6caafea0ac900163c","65b614c6caafea0ac900163c_20240212","","","9","98"
"3596","0","html-button-response","100","576993","0.0-100.0","65b614c6caafea0ac900163c","65b614c6caafea0ac900163c_20240212","","","6","50"
"3763","0","html-button-response","101","581263","0.0-101.0","65b614c6caafea0ac900163c","65b614c6caafea0ac900163c_20240212","","","5","100"
"13197","0","html-button-response","102","594967","0.0-102.0","65b614c6caafea0ac900163c","65b614c6caafea0ac900163c_20240212","","","8","177"
"9183","0","html-button-response","103","604657","0.0-103.0","65b614c6caafea0ac900163c","65b614c6caafea0ac900163c_20240212","","","8","171"
"5343","0","html-button-response","104","610508","0.0-104.0","65b614c6caafea0ac900163c","65b614c6caafea0ac900163c_20240212","","","5","172"
"2782","0","html-button-response","105","613794","0.0-105.0","65b614c6caafea0ac900163c","65b614c6caafea0ac900163c_20240212","","","4","170"
"2976","0","html-button-response","106","617277","0.0-106.0","65b614c6caafea0ac900163c","65b614c6caafea0ac900163c_20240212","","","4","42"
"2561","0","html-button-response","107","620344","0.0-107.0","65b614c6caafea0ac900163c","65b614c6caafea0ac900163c_20240212","","","3","44"
"3112","0","html-button-response","108","623963","0.0-108.0","65b614c6caafea0ac900163c","65b614c6caafea0ac900163c_20240212","","","6","45"
"3247","0","html-button-response","109","627714","0.0-109.0","65b614c6caafea0ac900163c","65b614c6caafea0ac900163c_20240212","","","5","165"
"3796","0","html-button-response","110","632017","0.0-110.0","65b614c6caafea0ac900163c","65b614c6caafea0ac900163c_20240212","","","4","169"
"7497","0","html-button-response","111","640021","0.0-111.0","65b614c6caafea0ac900163c","65b614c6caafea0ac900163c_20240212","","","9","102"
"3329","0","html-button-response","112","643855","0.0-112.0","65b614c6caafea0ac900163c","65b614c6caafea0ac900163c_20240212","","","7","105"
"3181","0","html-button-response","113","647543","0.0-113.0","65b614c6caafea0ac900163c","65b614c6caafea0ac900163c_20240212","","","7","167"
"4310","0","html-button-response","114","652360","0.0-114.0","65b614c6caafea0ac900163c","65b614c6caafea0ac900163c_20240212","","","9","94"
"19502","0","html-button-response","115","672369","0.0-115.0","65b614c6caafea0ac900163c","65b614c6caafea0ac900163c_20240212","","","3","103"
"7930","0","html-button-response","116","680807","0.0-116.0","65b614c6caafea0ac900163c","65b614c6caafea0ac900163c_20240212","","","8","41"
"19401","0","html-button-response","117","700714","0.0-117.0","65b614c6caafea0ac900163c","65b614c6caafea0ac900163c_20240212","","","9","99"
"5111","0","html-button-response","118","706332","0.0-118.0","65b614c6caafea0ac900163c","65b614c6caafea0ac900163c_20240212","","","1","53"
"5212","0","html-button-response","119","712050","0.0-119.0","65b614c6caafea0ac900163c","65b614c6caafea0ac900163c_20240212","","","3","168"
"5182","0","html-button-response","120","717738","0.0-120.0","65b614c6caafea0ac900163c","65b614c6caafea0ac900163c_20240212","","","3","104"
"6079","0","html-button-response","121","724323","0.0-121.0","65b614c6caafea0ac900163c","65b614c6caafea0ac900163c_20240212","","","9","101"
"3964","0","html-button-response","122","728793","0.0-122.0","65b614c6caafea0ac900163c","65b614c6caafea0ac900163c_20240212","","","3","54"
"3661","0","html-button-response","123","732960","0.0-123.0","65b614c6caafea0ac900163c","65b614c6caafea0ac900163c_20240212","","","4","161"
"7449","0","html-button-response","124","740916","0.0-124.0","65b614c6caafea0ac900163c","65b614c6caafea0ac900163c_20240212","","","4","176"
"5813","0","html-button-response","125","747235","0.0-125.0","65b614c6caafea0ac900163c","65b614c6caafea0ac900163c_20240212","","","4","51"
"8433","0","html-button-response","126","756172","0.0-126.0","65b614c6caafea0ac900163c","65b614c6caafea0ac900163c_20240212","","","",""
"4577","0","html-button-response","127","761260","0.0-127.0","65b614c6caafea0ac900163c","65b614c6caafea0ac900163c_20240212","","","9","80"
"2810","0","html-button-response","128","764576","0.0-128.0","65b614c6caafea0ac900163c","65b614c6caafea0ac900163c_20240212","","","9","78"
"2279","0","html-button-response","129","767362","0.0-129.0","65b614c6caafea0ac900163c","65b614c6caafea0ac900163c_20240212","","","9","151"
"2410","0","html-button-response","130","770279","0.0-130.0","65b614c6caafea0ac900163c","65b614c6caafea0ac900163c_20240212","","","9","149"
"2346","0","html-button-response","131","773131","0.0-131.0","65b614c6caafea0ac900163c","65b614c6caafea0ac900163c_20240212","","","9","86"
"5048","0","html-button-response","132","778685","0.0-132.0","65b614c6caafea0ac900163c","65b614c6caafea0ac900163c_20240212","","","6","140"
"2889","0","html-button-response","133","782081","0.0-133.0","65b614c6caafea0ac900163c","65b614c6caafea0ac900163c_20240212","","","9","81"
"1897","0","html-button-response","134","784484","0.0-134.0","65b614c6caafea0ac900163c","65b614c6caafea0ac900163c_20240212","","","9","79"
"5399","0","html-button-response","135","790389","0.0-135.0","65b614c6caafea0ac900163c","65b614c6caafea0ac900163c_20240212","","","6","29"
"2942","0","html-button-response","136","793837","0.0-136.0","65b614c6caafea0ac900163c","65b614c6caafea0ac900163c_20240212","","","9","133"
"3949","0","html-button-response","137","798290","0.0-137.0","65b614c6caafea0ac900163c","65b614c6caafea0ac900163c_20240212","","","9","75"
"11866","0","html-button-response","138","810662","0.0-138.0","65b614c6caafea0ac900163c","65b614c6caafea0ac900163c_20240212","","","9","76"
"4331","0","html-button-response","139","815500","0.0-139.0","65b614c6caafea0ac900163c","65b614c6caafea0ac900163c_20240212","","","6","32"
"11583","0","html-button-response","140","827589","0.0-140.0","65b614c6caafea0ac900163c","65b614c6caafea0ac900163c_20240212","","","9","132"
"13148","0","html-button-response","141","841243","0.0-141.0","65b614c6caafea0ac900163c","65b614c6caafea0ac900163c_20240212","","","9","136"
"15485","0","html-button-response","142","857234","0.0-142.0","65b614c6caafea0ac900163c","65b614c6caafea0ac900163c_20240212","","","9","178"
"4228","0","html-button-response","143","861969","0.0-143.0","65b614c6caafea0ac900163c","65b614c6caafea0ac900163c_20240212","","","5","21"
"5033","0","html-button-response","144","867506","0.0-144.0","65b614c6caafea0ac900163c","65b614c6caafea0ac900163c_20240212","","","4","27"
"3396","0","html-button-response","145","871409","0.0-145.0","65b614c6caafea0ac900163c","65b614c6caafea0ac900163c_20240212","","","9","73"
"6413","0","html-button-response","146","878329","0.0-146.0","65b614c6caafea0ac900163c","65b614c6caafea0ac900163c_20240212","","","4","34"
"9979","0","html-button-response","147","888812","0.0-147.0","65b614c6caafea0ac900163c","65b614c6caafea0ac900163c_20240212","","","9","141"
"10989","0","html-button-response","148","900305","0.0-148.0","65b614c6caafea0ac900163c","65b614c6caafea0ac900163c_20240212","","","9","180"
"3311","0","html-button-response","149","904122","0.0-149.0","65b614c6caafea0ac900163c","65b614c6caafea0ac900163c_20240212","","","6","22"
"2712","0","html-button-response","150","907339","0.0-150.0","65b614c6caafea0ac900163c","65b614c6caafea0ac900163c_20240212","","","9","153"
"3545","0","html-button-response","151","911391","0.0-151.0","65b614c6caafea0ac900163c","65b614c6caafea0ac900163c_20240212","","","9","142"
"2177","0","html-button-response","152","914074","0.0-152.0","65b614c6caafea0ac900163c","65b614c6caafea0ac900163c_20240212","","","9","138"
"3986","0","html-button-response","153","918564","0.0-153.0","65b614c6caafea0ac900163c","65b614c6caafea0ac900163c_20240212","","","9","84"
"4611","0","html-button-response","154","923682","0.0-154.0","65b614c6caafea0ac900163c","65b614c6caafea0ac900163c_20240212","","","7","28"
"1980","0","html-button-response","155","926166","0.0-155.0","65b614c6caafea0ac900163c","65b614c6caafea0ac900163c_20240212","","","9","87"
"4062","0","html-button-response","156","930736","0.0-156.0","65b614c6caafea0ac900163c","65b614c6caafea0ac900163c_20240212","","","6","31"
"8197","0","html-button-response","157","939440","0.0-157.0","65b614c6caafea0ac900163c","65b614c6caafea0ac900163c_20240212","","","9","150"
"3643","0","html-button-response","158","943590","0.0-158.0","65b614c6caafea0ac900163c","65b614c6caafea0ac900163c_20240212","","","6","19"
"5613","0","html-button-response","159","949710","0.0-159.0","65b614c6caafea0ac900163c","65b614c6caafea0ac900163c_20240212","","","9","82"
"4344","0","html-button-response","160","954561","0.0-160.0","65b614c6caafea0ac900163c","65b614c6caafea0ac900163c_20240212","","","9","144"
"3748","0","html-button-response","161","958814","0.0-161.0","65b614c6caafea0ac900163c","65b614c6caafea0ac900163c_20240212","","","6","23"
"2362","0","html-button-response","162","961682","0.0-162.0","65b614c6caafea0ac900163c","65b614c6caafea0ac900163c_20240212","","","6","143"
"3009","0","html-button-response","163","965197","0.0-163.0","65b614c6caafea0ac900163c","65b614c6caafea0ac900163c_20240212","","","9","152"
"7869","0","html-button-response","164","973571","0.0-164.0","65b614c6caafea0ac900163c","65b614c6caafea0ac900163c_20240212","","","9","139"
"4012","0","html-button-response","165","978089","0.0-165.0","65b614c6caafea0ac900163c","65b614c6caafea0ac900163c_20240212","","","9","83"
"8964","0","html-button-response","166","987560","0.0-166.0","65b614c6caafea0ac900163c","65b614c6caafea0ac900163c_20240212","","","9","145"
"3062","0","html-button-response","167","991129","0.0-167.0","65b614c6caafea0ac900163c","65b614c6caafea0ac900163c_20240212","","","7","20"
"3877","0","html-button-response","168","995514","0.0-168.0","65b614c6caafea0ac900163c","65b614c6caafea0ac900163c_20240212","","","9","36"
"4344","0","html-button-response","169","1000364","0.0-169.0","65b614c6caafea0ac900163c","65b614c6caafea0ac900163c_20240212","","","7","25"
"2781","0","html-button-response","170","1003652","0.0-170.0","65b614c6caafea0ac900163c","65b614c6caafea0ac900163c_20240212","","","9","90"
"2894","0","html-button-response","171","1007053","0.0-171.0","65b614c6caafea0ac900163c","65b614c6caafea0ac900163c_20240212","","","9","77"
"2380","0","html-button-response","172","1009940","0.0-172.0","65b614c6caafea0ac900163c","65b614c6caafea0ac900163c_20240212","","","9","85"
"8761","0","html-button-response","173","1019208","0.0-173.0","65b614c6caafea0ac900163c","65b614c6caafea0ac900163c_20240212","","","9","179"
"2944","0","html-button-response","174","1022659","0.0-174.0","65b614c6caafea0ac900163c","65b614c6caafea0ac900163c_20240212","","","5","33"
"4745","0","html-button-response","175","1027912","0.0-175.0","65b614c6caafea0ac900163c","65b614c6caafea0ac900163c_20240212","","","9","137"
"2479","0","html-button-response","176","1030897","0.0-176.0","65b614c6caafea0ac900163c","65b614c6caafea0ac900163c_20240212","","","9","74"
"2009","0","html-button-response","177","1033412","0.0-177.0","65b614c6caafea0ac900163c","65b614c6caafea0ac900163c_20240212","","","9","146"
"2996","0","html-button-response","178","1036914","0.0-178.0","65b614c6caafea0ac900163c","65b614c6caafea0ac900163c_20240212","","","5","35"
"3280","0","html-button-response","179","1040701","0.0-179.0","65b614c6caafea0ac900163c","65b614c6caafea0ac900163c_20240212","","","5","24"
"4664","0","html-button-response","180","1045870","0.0-180.0","65b614c6caafea0ac900163c","65b614c6caafea0ac900163c_20240212","","","9","135"
"2712","0","html-button-response","181","1049089","0.0-181.0","65b614c6caafea0ac900163c","65b614c6caafea0ac900163c_20240212","","","9","89"
"3378","0","html-button-response","182","1052972","0.0-182.0","65b614c6caafea0ac900163c","65b614c6caafea0ac900163c_20240212","","","9","154"
"2247","0","html-button-response","183","1055724","0.0-183.0","65b614c6caafea0ac900163c","65b614c6caafea0ac900163c_20240212","","","9","88"
"1944","0","html-button-response","184","1058175","0.0-184.0","65b614c6caafea0ac900163c","65b614c6caafea0ac900163c_20240212","","","9","147"
"4279","0","html-button-response","185","1062961","0.0-185.0","65b614c6caafea0ac900163c","65b614c6caafea0ac900163c_20240212","","","5","26"
"2341","0","html-button-response","186","1065810","0.0-186.0","65b614c6caafea0ac900163c","65b614c6caafea0ac900163c_20240212","","","9","134"
"3330","0","html-button-response","187","1069646","0.0-187.0","65b614c6caafea0ac900163c","65b614c6caafea0ac900163c_20240212","","","5","30"
"2496","0","html-button-response","188","1072649","0.0-188.0","65b614c6caafea0ac900163c","65b614c6caafea0ac900163c_20240212","","","9","148"
"7013","0","html-button-response","189","1080167","0.0-189.0","65b614c6caafea0ac900163c","65b614c6caafea0ac900163c_20240212","","Thank you. You have reached the end. 
                       <br>Click the button below to reveal your compensation.
                        <br><br>","",""
