"rt","response","trial_type","trial_index","time_elapsed","internal_node_id","part_ID","ID_DATE","screen_id","stimulus","rating","img_id"
"12149","0","html-button-response","0","12158","0.0-0.0","6116aa8875bdab57cab52804","6116aa8875bdab57cab52804_20240212","","","",""
"6179","[object Object]","survey-html-form","1","18839","0.0-1.0","6116aa8875bdab57cab52804","6116aa8875bdab57cab52804_20240212","prolific_id_page","","",""
"23361","0","html-button-response","2","42200","0.0-2.0","6116aa8875bdab57cab52804","6116aa8875bdab57cab52804_20240212","","","",""
"2459","0","html-button-response","3","45163","0.0-3.0","6116aa8875bdab57cab52804","6116aa8875bdab57cab52804_20240212","","
<div>
Great! You will now go on to rate the faces.
<br><br>
</div>
","",""
"8993","0","html-button-response","4","54659","0.0-4.0","6116aa8875bdab57cab52804","6116aa8875bdab57cab52804_20240212","","","7","107"
"7163","0","html-button-response","5","62325","0.0-5.0","6116aa8875bdab57cab52804","6116aa8875bdab57cab52804_20240212","","","5","166"
"9580","0","html-button-response","6","72408","0.0-6.0","6116aa8875bdab57cab52804","6116aa8875bdab57cab52804_20240212","","","4","162"
"5831","0","html-button-response","7","78741","0.0-7.0","6116aa8875bdab57cab52804","6116aa8875bdab57cab52804_20240212","","","8","94"
"4649","0","html-button-response","8","83893","0.0-8.0","6116aa8875bdab57cab52804","6116aa8875bdab57cab52804_20240212","","","7","92"
"14209","0","html-button-response","9","98604","0.0-9.0","6116aa8875bdab57cab52804","6116aa8875bdab57cab52804_20240212","","","5","54"
"23648","0","html-button-response","10","122756","0.0-10.0","6116aa8875bdab57cab52804","6116aa8875bdab57cab52804_20240212","","","3","156"
"11518","0","html-button-response","11","134776","0.0-11.0","6116aa8875bdab57cab52804","6116aa8875bdab57cab52804_20240212","","","4","174"
"5657","0","html-button-response","12","140937","0.0-12.0","6116aa8875bdab57cab52804","6116aa8875bdab57cab52804_20240212","","","7","172"
"12711","0","html-button-response","13","154149","0.0-13.0","6116aa8875bdab57cab52804","6116aa8875bdab57cab52804_20240212","","","4","165"
"22343","0","html-button-response","14","176993","0.0-14.0","6116aa8875bdab57cab52804","6116aa8875bdab57cab52804_20240212","","","6","168"
"4689","0","html-button-response","15","182186","0.0-15.0","6116aa8875bdab57cab52804","6116aa8875bdab57cab52804_20240212","","","8","98"
"5246","0","html-button-response","16","187934","0.0-16.0","6116aa8875bdab57cab52804","6116aa8875bdab57cab52804_20240212","","","7","177"
"7572","0","html-button-response","17","196008","0.0-17.0","6116aa8875bdab57cab52804","6116aa8875bdab57cab52804_20240212","","","3","39"
"18310","0","html-button-response","18","214821","0.0-18.0","6116aa8875bdab57cab52804","6116aa8875bdab57cab52804_20240212","","","3","175"
"4719","0","html-button-response","19","220042","0.0-19.0","6116aa8875bdab57cab52804","6116aa8875bdab57cab52804_20240212","","","5","167"
"79098","0","html-button-response","20","299642","0.0-20.0","6116aa8875bdab57cab52804","6116aa8875bdab57cab52804_20240212","","","3","45"
"4437","0","html-button-response","21","304582","0.0-21.0","6116aa8875bdab57cab52804","6116aa8875bdab57cab52804_20240212","","","6","171"
"5583","0","html-button-response","22","310667","0.0-22.0","6116aa8875bdab57cab52804","6116aa8875bdab57cab52804_20240212","","","3","44"
"6610","0","html-button-response","23","317779","0.0-23.0","6116aa8875bdab57cab52804","6116aa8875bdab57cab52804_20240212","","","2","48"
"13923","0","html-button-response","24","332205","0.0-24.0","6116aa8875bdab57cab52804","6116aa8875bdab57cab52804_20240212","","","9","96"
"10634","0","html-button-response","25","343339","0.0-25.0","6116aa8875bdab57cab52804","6116aa8875bdab57cab52804_20240212","","","6","49"
"7781","0","html-button-response","26","351622","0.0-26.0","6116aa8875bdab57cab52804","6116aa8875bdab57cab52804_20240212","","","7","155"
"34602","0","html-button-response","27","386729","0.0-27.0","6116aa8875bdab57cab52804","6116aa8875bdab57cab52804_20240212","","","2","40"
"4902","0","html-button-response","28","392133","0.0-28.0","6116aa8875bdab57cab52804","6116aa8875bdab57cab52804_20240212","","","8","104"
"11636","0","html-button-response","29","404273","0.0-29.0","6116aa8875bdab57cab52804","6116aa8875bdab57cab52804_20240212","","","3","42"
"5476","0","html-button-response","30","410252","0.0-30.0","6116aa8875bdab57cab52804","6116aa8875bdab57cab52804_20240212","","","8","100"
"5806","0","html-button-response","31","416563","0.0-31.0","6116aa8875bdab57cab52804","6116aa8875bdab57cab52804_20240212","","","7","158"
"9311","0","html-button-response","32","426377","0.0-32.0","6116aa8875bdab57cab52804","6116aa8875bdab57cab52804_20240212","","","6","108"
"6254","0","html-button-response","33","433135","0.0-33.0","6116aa8875bdab57cab52804","6116aa8875bdab57cab52804_20240212","","","3","38"
"9398","0","html-button-response","34","443036","0.0-34.0","6116aa8875bdab57cab52804","6116aa8875bdab57cab52804_20240212","","","5","106"
"15150","0","html-button-response","35","458688","0.0-35.0","6116aa8875bdab57cab52804","6116aa8875bdab57cab52804_20240212","","","5","93"
"22284","0","html-button-response","36","481474","0.0-36.0","6116aa8875bdab57cab52804","6116aa8875bdab57cab52804_20240212","","","2","50"
"5376","0","html-button-response","37","487353","0.0-37.0","6116aa8875bdab57cab52804","6116aa8875bdab57cab52804_20240212","","","8","97"
"5444","0","html-button-response","38","493301","0.0-38.0","6116aa8875bdab57cab52804","6116aa8875bdab57cab52804_20240212","","","9","101"
"3692","0","html-button-response","39","497494","0.0-39.0","6116aa8875bdab57cab52804","6116aa8875bdab57cab52804_20240212","","","5","105"
"4259","0","html-button-response","40","502256","0.0-40.0","6116aa8875bdab57cab52804","6116aa8875bdab57cab52804_20240212","","","9","103"
"5546","0","html-button-response","41","508306","0.0-41.0","6116aa8875bdab57cab52804","6116aa8875bdab57cab52804_20240212","","","2","41"
"5790","0","html-button-response","42","514598","0.0-42.0","6116aa8875bdab57cab52804","6116aa8875bdab57cab52804_20240212","","","8","160"
"4670","0","html-button-response","43","519770","0.0-43.0","6116aa8875bdab57cab52804","6116aa8875bdab57cab52804_20240212","","","4","164"
"7352","0","html-button-response","44","527626","0.0-44.0","6116aa8875bdab57cab52804","6116aa8875bdab57cab52804_20240212","","","7","91"
"22658","0","html-button-response","45","550787","0.0-45.0","6116aa8875bdab57cab52804","6116aa8875bdab57cab52804_20240212","","","8","102"
"9848","0","html-button-response","46","561140","0.0-46.0","6116aa8875bdab57cab52804","6116aa8875bdab57cab52804_20240212","","","6","99"
"15855","0","html-button-response","47","577496","0.0-47.0","6116aa8875bdab57cab52804","6116aa8875bdab57cab52804_20240212","","","2","173"
"12062","0","html-button-response","48","590067","0.0-48.0","6116aa8875bdab57cab52804","6116aa8875bdab57cab52804_20240212","","","2","157"
"40258","0","html-button-response","49","630828","0.0-49.0","6116aa8875bdab57cab52804","6116aa8875bdab57cab52804_20240212","","","2","95"
"5258","0","html-button-response","50","636588","0.0-50.0","6116aa8875bdab57cab52804","6116aa8875bdab57cab52804_20240212","","","1","181"
"12373","0","html-button-response","51","649465","0.0-51.0","6116aa8875bdab57cab52804","6116aa8875bdab57cab52804_20240212","","","3","163"
"37491","0","html-button-response","52","687458","0.0-52.0","6116aa8875bdab57cab52804","6116aa8875bdab57cab52804_20240212","","","1","169"
"5166","0","html-button-response","53","693128","0.0-53.0","6116aa8875bdab57cab52804","6116aa8875bdab57cab52804_20240212","","","2","53"
"3768","0","html-button-response","54","697398","0.0-54.0","6116aa8875bdab57cab52804","6116aa8875bdab57cab52804_20240212","","","5","161"
"4321","0","html-button-response","55","702222","0.0-55.0","6116aa8875bdab57cab52804","6116aa8875bdab57cab52804_20240212","","","4","176"
"47015","0","html-button-response","56","749738","0.0-56.0","6116aa8875bdab57cab52804","6116aa8875bdab57cab52804_20240212","","","2","52"
"3258","0","html-button-response","57","753499","0.0-57.0","6116aa8875bdab57cab52804","6116aa8875bdab57cab52804_20240212","","","4","51"
"4085","0","html-button-response","58","758086","0.0-58.0","6116aa8875bdab57cab52804","6116aa8875bdab57cab52804_20240212","","","2","46"
"4254","0","html-button-response","59","762842","0.0-59.0","6116aa8875bdab57cab52804","6116aa8875bdab57cab52804_20240212","","","5","182"
"4283","0","html-button-response","60","767626","0.0-60.0","6116aa8875bdab57cab52804","6116aa8875bdab57cab52804_20240212","","","3","47"
"5529","0","html-button-response","61","773657","0.0-61.0","6116aa8875bdab57cab52804","6116aa8875bdab57cab52804_20240212","","","2","37"
"21333","0","html-button-response","62","795492","0.0-62.0","6116aa8875bdab57cab52804","6116aa8875bdab57cab52804_20240212","","","2","159"
"6905","0","html-button-response","63","802899","0.0-63.0","6116aa8875bdab57cab52804","6116aa8875bdab57cab52804_20240212","","","6","170"
"4926","0","html-button-response","64","808326","0.0-64.0","6116aa8875bdab57cab52804","6116aa8875bdab57cab52804_20240212","","","1","183"
"32346","0","html-button-response","65","841182","0.0-65.0","6116aa8875bdab57cab52804","6116aa8875bdab57cab52804_20240212","","","1","43"
"2999","0","html-button-response","66","844683","0.0-66.0","6116aa8875bdab57cab52804","6116aa8875bdab57cab52804_20240212","","","",""
"6574","0","html-button-response","67","851761","0.0-67.0","6116aa8875bdab57cab52804","6116aa8875bdab57cab52804_20240212","","","9","124"
"7456","0","html-button-response","68","859719","0.0-68.0","6116aa8875bdab57cab52804","6116aa8875bdab57cab52804_20240212","","","8","110"
"3964","0","html-button-response","69","864185","0.0-69.0","6116aa8875bdab57cab52804","6116aa8875bdab57cab52804_20240212","","","9","130"
"7980","0","html-button-response","70","872666","0.0-70.0","6116aa8875bdab57cab52804","6116aa8875bdab57cab52804_20240212","","","8","55"
"15105","0","html-button-response","71","888273","0.0-71.0","6116aa8875bdab57cab52804","6116aa8875bdab57cab52804_20240212","","","8","112"
"10510","0","html-button-response","72","899285","0.0-72.0","6116aa8875bdab57cab52804","6116aa8875bdab57cab52804_20240212","","","3","9"
"4285","0","html-button-response","73","904072","0.0-73.0","6116aa8875bdab57cab52804","6116aa8875bdab57cab52804_20240212","","","8","128"
"4670","0","html-button-response","74","909245","0.0-74.0","6116aa8875bdab57cab52804","6116aa8875bdab57cab52804_20240212","","","9","109"
"10637","0","html-button-response","75","920384","0.0-75.0","6116aa8875bdab57cab52804","6116aa8875bdab57cab52804_20240212","","","8","122"
"5037","0","html-button-response","76","925925","0.0-76.0","6116aa8875bdab57cab52804","6116aa8875bdab57cab52804_20240212","","","4","10"
"4599","0","html-button-response","77","931028","0.0-77.0","6116aa8875bdab57cab52804","6116aa8875bdab57cab52804_20240212","","","7","119"
"7355","0","html-button-response","78","938887","0.0-78.0","6116aa8875bdab57cab52804","6116aa8875bdab57cab52804_20240212","","","7","4"
"4519","0","html-button-response","79","943908","0.0-79.0","6116aa8875bdab57cab52804","6116aa8875bdab57cab52804_20240212","","","5","17"
"42756","0","html-button-response","80","987165","0.0-80.0","6116aa8875bdab57cab52804","6116aa8875bdab57cab52804_20240212","","","8","58"
"24093","0","html-button-response","81","1011760","0.0-81.0","6116aa8875bdab57cab52804","6116aa8875bdab57cab52804_20240212","","","7","8"
"21124","0","html-button-response","82","1033386","0.0-82.0","6116aa8875bdab57cab52804","6116aa8875bdab57cab52804_20240212","","","8","62"
"22762","0","html-button-response","83","1056650","0.0-83.0","6116aa8875bdab57cab52804","6116aa8875bdab57cab52804_20240212","","","9","72"
"4536","0","html-button-response","84","1061688","0.0-84.0","6116aa8875bdab57cab52804","6116aa8875bdab57cab52804_20240212","","","8","18"
"4190","0","html-button-response","85","1066379","0.0-85.0","6116aa8875bdab57cab52804","6116aa8875bdab57cab52804_20240212","","","9","111"
"14080","0","html-button-response","86","1080960","0.0-86.0","6116aa8875bdab57cab52804","6116aa8875bdab57cab52804_20240212","","","8","15"
"4930","0","html-button-response","87","1086394","0.0-87.0","6116aa8875bdab57cab52804","6116aa8875bdab57cab52804_20240212","","","9","6"
"5369","0","html-button-response","88","1092264","0.0-88.0","6116aa8875bdab57cab52804","6116aa8875bdab57cab52804_20240212","","","6","125"
"3546","0","html-button-response","89","1096311","0.0-89.0","6116aa8875bdab57cab52804","6116aa8875bdab57cab52804_20240212","","","9","123"
"4558","0","html-button-response","90","1101371","0.0-90.0","6116aa8875bdab57cab52804","6116aa8875bdab57cab52804_20240212","","","4","12"
"5583","0","html-button-response","91","1107457","0.0-91.0","6116aa8875bdab57cab52804","6116aa8875bdab57cab52804_20240212","","","8","117"
"44140","0","html-button-response","92","1152098","0.0-92.0","6116aa8875bdab57cab52804","6116aa8875bdab57cab52804_20240212","","","3","11"
"5281","0","html-button-response","93","1157882","0.0-93.0","6116aa8875bdab57cab52804","6116aa8875bdab57cab52804_20240212","","","7","64"
"4621","0","html-button-response","94","1163004","0.0-94.0","6116aa8875bdab57cab52804","6116aa8875bdab57cab52804_20240212","","","8","67"
"4987","0","html-button-response","95","1168493","0.0-95.0","6116aa8875bdab57cab52804","6116aa8875bdab57cab52804_20240212","","","5","16"
"5961","0","html-button-response","96","1174956","0.0-96.0","6116aa8875bdab57cab52804","6116aa8875bdab57cab52804_20240212","","","7","71"
"41101","0","html-button-response","97","1216558","0.0-97.0","6116aa8875bdab57cab52804","6116aa8875bdab57cab52804_20240212","","","8","70"
"4147","0","html-button-response","98","1221207","0.0-98.0","6116aa8875bdab57cab52804","6116aa8875bdab57cab52804_20240212","","","9","5"
"3213","0","html-button-response","99","1224922","0.0-99.0","6116aa8875bdab57cab52804","6116aa8875bdab57cab52804_20240212","","","9","69"
"6010","0","html-button-response","100","1231434","0.0-100.0","6116aa8875bdab57cab52804","6116aa8875bdab57cab52804_20240212","","","6","59"
"70753","0","html-button-response","101","1302688","0.0-101.0","6116aa8875bdab57cab52804","6116aa8875bdab57cab52804_20240212","","","5","131"
"3979","0","html-button-response","102","1307172","0.0-102.0","6116aa8875bdab57cab52804","6116aa8875bdab57cab52804_20240212","","","6","7"
"3825","0","html-button-response","103","1311502","0.0-103.0","6116aa8875bdab57cab52804","6116aa8875bdab57cab52804_20240212","","","8","61"
"5163","0","html-button-response","104","1317166","0.0-104.0","6116aa8875bdab57cab52804","6116aa8875bdab57cab52804_20240212","","","9","121"
"6162","0","html-button-response","105","1323831","0.0-105.0","6116aa8875bdab57cab52804","6116aa8875bdab57cab52804_20240212","","","9","57"
"19688","0","html-button-response","106","1344019","0.0-106.0","6116aa8875bdab57cab52804","6116aa8875bdab57cab52804_20240212","","","7","68"
"4110","0","html-button-response","107","1348632","0.0-107.0","6116aa8875bdab57cab52804","6116aa8875bdab57cab52804_20240212","","","9","56"
"3894","0","html-button-response","108","1353030","0.0-108.0","6116aa8875bdab57cab52804","6116aa8875bdab57cab52804_20240212","","","6","120"
"195807","0","html-button-response","109","1549372","0.0-109.0","6116aa8875bdab57cab52804","6116aa8875bdab57cab52804_20240212","","","6","1"
"21559","0","html-button-response","110","1571435","0.0-110.0","6116aa8875bdab57cab52804","6116aa8875bdab57cab52804_20240212","","","8","115"
"4193","0","html-button-response","111","1576131","0.0-111.0","6116aa8875bdab57cab52804","6116aa8875bdab57cab52804_20240212","","","7","116"
"82054","0","html-button-response","112","1658685","0.0-112.0","6116aa8875bdab57cab52804","6116aa8875bdab57cab52804_20240212","","","6","118"
"4924","0","html-button-response","113","1664112","0.0-113.0","6116aa8875bdab57cab52804","6116aa8875bdab57cab52804_20240212","","","7","113"
"12275","0","html-button-response","114","1676889","0.0-114.0","6116aa8875bdab57cab52804","6116aa8875bdab57cab52804_20240212","","","8","66"
"3323","0","html-button-response","115","1680715","0.0-115.0","6116aa8875bdab57cab52804","6116aa8875bdab57cab52804_20240212","","","9","126"
"5856","0","html-button-response","116","1687075","0.0-116.0","6116aa8875bdab57cab52804","6116aa8875bdab57cab52804_20240212","","","3","14"
"3909","0","html-button-response","117","1691486","0.0-117.0","6116aa8875bdab57cab52804","6116aa8875bdab57cab52804_20240212","","","6","114"
"4166","0","html-button-response","118","1696155","0.0-118.0","6116aa8875bdab57cab52804","6116aa8875bdab57cab52804_20240212","","","2","2"
"14963","0","html-button-response","119","1711620","0.0-119.0","6116aa8875bdab57cab52804","6116aa8875bdab57cab52804_20240212","","","1","60"
"5016","0","html-button-response","120","1717140","0.0-120.0","6116aa8875bdab57cab52804","6116aa8875bdab57cab52804_20240212","","","7","65"
"5152","0","html-button-response","121","1722795","0.0-121.0","6116aa8875bdab57cab52804","6116aa8875bdab57cab52804_20240212","","","3","13"
"5896","0","html-button-response","122","1729193","0.0-122.0","6116aa8875bdab57cab52804","6116aa8875bdab57cab52804_20240212","","","6","63"
"3467","0","html-button-response","123","1733163","0.0-123.0","6116aa8875bdab57cab52804","6116aa8875bdab57cab52804_20240212","","","8","129"
"4581","0","html-button-response","124","1738247","0.0-124.0","6116aa8875bdab57cab52804","6116aa8875bdab57cab52804_20240212","","","2","3"
"42158","0","html-button-response","125","1780906","0.0-125.0","6116aa8875bdab57cab52804","6116aa8875bdab57cab52804_20240212","","","7","127"
"4723","0","html-button-response","126","1786131","0.0-126.0","6116aa8875bdab57cab52804","6116aa8875bdab57cab52804_20240212","","","",""
"22693","0","html-button-response","127","1809326","0.0-127.0","6116aa8875bdab57cab52804","6116aa8875bdab57cab52804_20240212","","","8","19"
"15390","0","html-button-response","128","1825218","0.0-128.0","6116aa8875bdab57cab52804","6116aa8875bdab57cab52804_20240212","","","9","32"
"12810","0","html-button-response","129","1838531","0.0-129.0","6116aa8875bdab57cab52804","6116aa8875bdab57cab52804_20240212","","","9","153"
"3813","0","html-button-response","130","1842845","0.0-130.0","6116aa8875bdab57cab52804","6116aa8875bdab57cab52804_20240212","","","9","133"
"2870","0","html-button-response","131","1846217","0.0-131.0","6116aa8875bdab57cab52804","6116aa8875bdab57cab52804_20240212","","","9","144"
"3616","0","html-button-response","132","1850336","0.0-132.0","6116aa8875bdab57cab52804","6116aa8875bdab57cab52804_20240212","","","7","22"
"4922","0","html-button-response","133","1855761","0.0-133.0","6116aa8875bdab57cab52804","6116aa8875bdab57cab52804_20240212","","","9","90"
"3385","0","html-button-response","134","1859648","0.0-134.0","6116aa8875bdab57cab52804","6116aa8875bdab57cab52804_20240212","","","9","88"
"16117","0","html-button-response","135","1876268","0.0-135.0","6116aa8875bdab57cab52804","6116aa8875bdab57cab52804_20240212","","","6","35"
"29230","0","html-button-response","136","1906000","0.0-136.0","6116aa8875bdab57cab52804","6116aa8875bdab57cab52804_20240212","","","8","142"
"3201","0","html-button-response","137","1909704","0.0-137.0","6116aa8875bdab57cab52804","6116aa8875bdab57cab52804_20240212","","","9","85"
"3042","0","html-button-response","138","1913248","0.0-138.0","6116aa8875bdab57cab52804","6116aa8875bdab57cab52804_20240212","","","8","81"
"3311","0","html-button-response","139","1917062","0.0-139.0","6116aa8875bdab57cab52804","6116aa8875bdab57cab52804_20240212","","","7","143"
"3834","0","html-button-response","140","1921399","0.0-140.0","6116aa8875bdab57cab52804","6116aa8875bdab57cab52804_20240212","","","5","23"
"14669","0","html-button-response","141","1936569","0.0-141.0","6116aa8875bdab57cab52804","6116aa8875bdab57cab52804_20240212","","","8","82"
"7741","0","html-button-response","142","1944814","0.0-142.0","6116aa8875bdab57cab52804","6116aa8875bdab57cab52804_20240212","","","6","180"
"3524","0","html-button-response","143","1948840","0.0-143.0","6116aa8875bdab57cab52804","6116aa8875bdab57cab52804_20240212","","","7","147"
"3621","0","html-button-response","144","1952962","0.0-144.0","6116aa8875bdab57cab52804","6116aa8875bdab57cab52804_20240212","","","8","140"
"7161","0","html-button-response","145","1960628","0.0-145.0","6116aa8875bdab57cab52804","6116aa8875bdab57cab52804_20240212","","","8","87"
"13732","0","html-button-response","146","1974861","0.0-146.0","6116aa8875bdab57cab52804","6116aa8875bdab57cab52804_20240212","","","8","138"
"5133","0","html-button-response","147","1980497","0.0-147.0","6116aa8875bdab57cab52804","6116aa8875bdab57cab52804_20240212","","","9","154"
"4698","0","html-button-response","148","1985698","0.0-148.0","6116aa8875bdab57cab52804","6116aa8875bdab57cab52804_20240212","","","6","26"
"7316","0","html-button-response","149","1993517","0.0-149.0","6116aa8875bdab57cab52804","6116aa8875bdab57cab52804_20240212","","","5","83"
"2906","0","html-button-response","150","1996925","0.0-150.0","6116aa8875bdab57cab52804","6116aa8875bdab57cab52804_20240212","","","7","150"
"3800","0","html-button-response","151","2001229","0.0-151.0","6116aa8875bdab57cab52804","6116aa8875bdab57cab52804_20240212","","","5","21"
"3991","0","html-button-response","152","2005722","0.0-152.0","6116aa8875bdab57cab52804","6116aa8875bdab57cab52804_20240212","","","7","179"
"3072","0","html-button-response","153","2009297","0.0-153.0","6116aa8875bdab57cab52804","6116aa8875bdab57cab52804_20240212","","","8","139"
"43245","0","html-button-response","154","2053043","0.0-154.0","6116aa8875bdab57cab52804","6116aa8875bdab57cab52804_20240212","","","8","135"
"4612","0","html-button-response","155","2058159","0.0-155.0","6116aa8875bdab57cab52804","6116aa8875bdab57cab52804_20240212","","","7","76"
"4284","0","html-button-response","156","2062945","0.0-156.0","6116aa8875bdab57cab52804","6116aa8875bdab57cab52804_20240212","","","5","30"
"15965","0","html-button-response","157","2079413","0.0-157.0","6116aa8875bdab57cab52804","6116aa8875bdab57cab52804_20240212","","","4","27"
"3430","0","html-button-response","158","2083345","0.0-158.0","6116aa8875bdab57cab52804","6116aa8875bdab57cab52804_20240212","","","5","78"
"5058","0","html-button-response","159","2088905","0.0-159.0","6116aa8875bdab57cab52804","6116aa8875bdab57cab52804_20240212","","","3","34"
"3501","0","html-button-response","160","2092908","0.0-160.0","6116aa8875bdab57cab52804","6116aa8875bdab57cab52804_20240212","","","7","152"
"14554","0","html-button-response","161","2107965","0.0-161.0","6116aa8875bdab57cab52804","6116aa8875bdab57cab52804_20240212","","","5","36"
"5066","0","html-button-response","162","2113534","0.0-162.0","6116aa8875bdab57cab52804","6116aa8875bdab57cab52804_20240212","","","5","33"
"49342","0","html-button-response","163","2163377","0.0-163.0","6116aa8875bdab57cab52804","6116aa8875bdab57cab52804_20240212","","","7","134"
"4222","0","html-button-response","164","2168101","0.0-164.0","6116aa8875bdab57cab52804","6116aa8875bdab57cab52804_20240212","","","9","79"
"3324","0","html-button-response","165","2171930","0.0-165.0","6116aa8875bdab57cab52804","6116aa8875bdab57cab52804_20240212","","","8","84"
"4267","0","html-button-response","166","2176698","0.0-166.0","6116aa8875bdab57cab52804","6116aa8875bdab57cab52804_20240212","","","8","145"
"11199","0","html-button-response","167","2188398","0.0-167.0","6116aa8875bdab57cab52804","6116aa8875bdab57cab52804_20240212","","","3","20"
"4601","0","html-button-response","168","2193502","0.0-168.0","6116aa8875bdab57cab52804","6116aa8875bdab57cab52804_20240212","","","6","151"
"26808","0","html-button-response","169","2220811","0.0-169.0","6116aa8875bdab57cab52804","6116aa8875bdab57cab52804_20240212","","","5","29"
"5423","0","html-button-response","170","2226736","0.0-170.0","6116aa8875bdab57cab52804","6116aa8875bdab57cab52804_20240212","","","9","77"
"3192","0","html-button-response","171","2230431","0.0-171.0","6116aa8875bdab57cab52804","6116aa8875bdab57cab52804_20240212","","","8","178"
"4242","0","html-button-response","172","2235178","0.0-172.0","6116aa8875bdab57cab52804","6116aa8875bdab57cab52804_20240212","","","7","149"
"3128","0","html-button-response","173","2238808","0.0-173.0","6116aa8875bdab57cab52804","6116aa8875bdab57cab52804_20240212","","","8","132"
"5806","0","html-button-response","174","2245117","0.0-174.0","6116aa8875bdab57cab52804","6116aa8875bdab57cab52804_20240212","","","8","80"
"4192","0","html-button-response","175","2249810","0.0-175.0","6116aa8875bdab57cab52804","6116aa8875bdab57cab52804_20240212","","","7","75"
"7003","0","html-button-response","176","2257314","0.0-176.0","6116aa8875bdab57cab52804","6116aa8875bdab57cab52804_20240212","","","5","24"
"3489","0","html-button-response","177","2261306","0.0-177.0","6116aa8875bdab57cab52804","6116aa8875bdab57cab52804_20240212","","","4","31"
"3600","0","html-button-response","178","2265408","0.0-178.0","6116aa8875bdab57cab52804","6116aa8875bdab57cab52804_20240212","","","7","146"
"9621","0","html-button-response","179","2275531","0.0-179.0","6116aa8875bdab57cab52804","6116aa8875bdab57cab52804_20240212","","","8","136"
"17807","0","html-button-response","180","2293839","0.0-180.0","6116aa8875bdab57cab52804","6116aa8875bdab57cab52804_20240212","","","8","141"
"15506","0","html-button-response","181","2309849","0.0-181.0","6116aa8875bdab57cab52804","6116aa8875bdab57cab52804_20240212","","","7","137"
"5101","0","html-button-response","182","2315452","0.0-182.0","6116aa8875bdab57cab52804","6116aa8875bdab57cab52804_20240212","","","7","148"
"4360","0","html-button-response","183","2320315","0.0-183.0","6116aa8875bdab57cab52804","6116aa8875bdab57cab52804_20240212","","","4","86"
"3542","0","html-button-response","184","2324358","0.0-184.0","6116aa8875bdab57cab52804","6116aa8875bdab57cab52804_20240212","","","8","74"
"14476","0","html-button-response","185","2339335","0.0-185.0","6116aa8875bdab57cab52804","6116aa8875bdab57cab52804_20240212","","","5","28"
"5026","0","html-button-response","186","2344864","0.0-186.0","6116aa8875bdab57cab52804","6116aa8875bdab57cab52804_20240212","","","8","89"
"4946","0","html-button-response","187","2350314","0.0-187.0","6116aa8875bdab57cab52804","6116aa8875bdab57cab52804_20240212","","","9","73"
"4436","0","html-button-response","188","2355255","0.0-188.0","6116aa8875bdab57cab52804","6116aa8875bdab57cab52804_20240212","","","4","25"
"2524","0","html-button-response","189","2358280","0.0-189.0","6116aa8875bdab57cab52804","6116aa8875bdab57cab52804_20240212","","Thank you. You have reached the end. 
                       <br>Click the button below to reveal your compensation.
                        <br><br>","",""
