"rt","response","trial_type","trial_index","time_elapsed","internal_node_id","part_ID","ID_DATE","screen_id","stimulus","rating","img_id"
"2549","0","html-button-response","0","2551","0.0-0.0","5fc2a5c0ddfca10169395662","5fc2a5c0ddfca10169395662_20240212","","","",""
"5024","[object Object]","survey-html-form","1","8086","0.0-1.0","5fc2a5c0ddfca10169395662","5fc2a5c0ddfca10169395662_20240212","prolific_id_page","","",""
"8008","0","html-button-response","2","16095","0.0-2.0","5fc2a5c0ddfca10169395662","5fc2a5c0ddfca10169395662_20240212","","","",""
"1828","0","html-button-response","3","18429","0.0-3.0","5fc2a5c0ddfca10169395662","5fc2a5c0ddfca10169395662_20240212","","
<div>
Great! You will now go on to rate the faces.
<br><br>
</div>
","",""
"6645","0","html-button-response","4","25584","0.0-4.0","5fc2a5c0ddfca10169395662","5fc2a5c0ddfca10169395662_20240212","","","7","133"
"5311","0","html-button-response","5","31406","0.0-5.0","5fc2a5c0ddfca10169395662","5fc2a5c0ddfca10169395662_20240212","","","6","31"
"4946","0","html-button-response","6","36854","0.0-6.0","5fc2a5c0ddfca10169395662","5fc2a5c0ddfca10169395662_20240212","","","5","26"
"2451","0","html-button-response","7","39813","0.0-7.0","5fc2a5c0ddfca10169395662","5fc2a5c0ddfca10169395662_20240212","","","5","32"
"5406","0","html-button-response","8","45730","0.0-8.0","5fc2a5c0ddfca10169395662","5fc2a5c0ddfca10169395662_20240212","","","8","87"
"5726","0","html-button-response","9","51959","0.0-9.0","5fc2a5c0ddfca10169395662","5fc2a5c0ddfca10169395662_20240212","","","6","132"
"2298","0","html-button-response","10","54766","0.0-10.0","5fc2a5c0ddfca10169395662","5fc2a5c0ddfca10169395662_20240212","","","7","85"
"3019","0","html-button-response","11","58286","0.0-11.0","5fc2a5c0ddfca10169395662","5fc2a5c0ddfca10169395662_20240212","","","5","33"
"2742","0","html-button-response","12","61541","0.0-12.0","5fc2a5c0ddfca10169395662","5fc2a5c0ddfca10169395662_20240212","","","5","25"
"2757","0","html-button-response","13","64814","0.0-13.0","5fc2a5c0ddfca10169395662","5fc2a5c0ddfca10169395662_20240212","","","5","29"
"5498","0","html-button-response","14","70826","0.0-14.0","5fc2a5c0ddfca10169395662","5fc2a5c0ddfca10169395662_20240212","","","4","20"
"3911","0","html-button-response","15","75238","0.0-15.0","5fc2a5c0ddfca10169395662","5fc2a5c0ddfca10169395662_20240212","","","7","179"
"3089","0","html-button-response","16","78834","0.0-16.0","5fc2a5c0ddfca10169395662","5fc2a5c0ddfca10169395662_20240212","","","7","178"
"3361","0","html-button-response","17","82710","0.0-17.0","5fc2a5c0ddfca10169395662","5fc2a5c0ddfca10169395662_20240212","","","5","19"
"2177","0","html-button-response","18","85403","0.0-18.0","5fc2a5c0ddfca10169395662","5fc2a5c0ddfca10169395662_20240212","","","5","34"
"2503","0","html-button-response","19","88415","0.0-19.0","5fc2a5c0ddfca10169395662","5fc2a5c0ddfca10169395662_20240212","","","7","148"
"2828","0","html-button-response","20","91747","0.0-20.0","5fc2a5c0ddfca10169395662","5fc2a5c0ddfca10169395662_20240212","","","7","180"
"2570","0","html-button-response","21","94830","0.0-21.0","5fc2a5c0ddfca10169395662","5fc2a5c0ddfca10169395662_20240212","","","8","84"
"2263","0","html-button-response","22","97595","0.0-22.0","5fc2a5c0ddfca10169395662","5fc2a5c0ddfca10169395662_20240212","","","7","134"
"2514","0","html-button-response","23","100611","0.0-23.0","5fc2a5c0ddfca10169395662","5fc2a5c0ddfca10169395662_20240212","","","8","140"
"2117","0","html-button-response","24","103241","0.0-24.0","5fc2a5c0ddfca10169395662","5fc2a5c0ddfca10169395662_20240212","","","7","153"
"3485","0","html-button-response","25","107235","0.0-25.0","5fc2a5c0ddfca10169395662","5fc2a5c0ddfca10169395662_20240212","","","6","23"
"3441","0","html-button-response","26","111184","0.0-26.0","5fc2a5c0ddfca10169395662","5fc2a5c0ddfca10169395662_20240212","","","5","35"
"2499","0","html-button-response","27","114194","0.0-27.0","5fc2a5c0ddfca10169395662","5fc2a5c0ddfca10169395662_20240212","","","7","143"
"2569","0","html-button-response","28","117275","0.0-28.0","5fc2a5c0ddfca10169395662","5fc2a5c0ddfca10169395662_20240212","","","7","139"
"3821","0","html-button-response","29","121611","0.0-29.0","5fc2a5c0ddfca10169395662","5fc2a5c0ddfca10169395662_20240212","","","5","24"
"5819","0","html-button-response","30","127946","0.0-30.0","5fc2a5c0ddfca10169395662","5fc2a5c0ddfca10169395662_20240212","","","6","86"
"2182","0","html-button-response","31","130638","0.0-31.0","5fc2a5c0ddfca10169395662","5fc2a5c0ddfca10169395662_20240212","","","5","27"
"3048","0","html-button-response","32","134192","0.0-32.0","5fc2a5c0ddfca10169395662","5fc2a5c0ddfca10169395662_20240212","","","7","146"
"2225","0","html-button-response","33","136922","0.0-33.0","5fc2a5c0ddfca10169395662","5fc2a5c0ddfca10169395662_20240212","","","7","136"
"2600","0","html-button-response","34","140035","0.0-34.0","5fc2a5c0ddfca10169395662","5fc2a5c0ddfca10169395662_20240212","","","8","135"
"2281","0","html-button-response","35","142827","0.0-35.0","5fc2a5c0ddfca10169395662","5fc2a5c0ddfca10169395662_20240212","","","8","90"
"4571","0","html-button-response","36","147915","0.0-36.0","5fc2a5c0ddfca10169395662","5fc2a5c0ddfca10169395662_20240212","","","7","83"
"2019","0","html-button-response","37","150444","0.0-37.0","5fc2a5c0ddfca10169395662","5fc2a5c0ddfca10169395662_20240212","","","8","75"
"2437","0","html-button-response","38","153394","0.0-38.0","5fc2a5c0ddfca10169395662","5fc2a5c0ddfca10169395662_20240212","","","7","78"
"2302","0","html-button-response","39","156203","0.0-39.0","5fc2a5c0ddfca10169395662","5fc2a5c0ddfca10169395662_20240212","","","7","138"
"2332","0","html-button-response","40","159038","0.0-40.0","5fc2a5c0ddfca10169395662","5fc2a5c0ddfca10169395662_20240212","","","5","36"
"4237","0","html-button-response","41","163777","0.0-41.0","5fc2a5c0ddfca10169395662","5fc2a5c0ddfca10169395662_20240212","","","7","145"
"2231","0","html-button-response","42","166523","0.0-42.0","5fc2a5c0ddfca10169395662","5fc2a5c0ddfca10169395662_20240212","","","5","22"
"5482","0","html-button-response","43","172515","0.0-43.0","5fc2a5c0ddfca10169395662","5fc2a5c0ddfca10169395662_20240212","","","6","137"
"3354","0","html-button-response","44","176374","0.0-44.0","5fc2a5c0ddfca10169395662","5fc2a5c0ddfca10169395662_20240212","","","7","151"
"6709","0","html-button-response","45","183586","0.0-45.0","5fc2a5c0ddfca10169395662","5fc2a5c0ddfca10169395662_20240212","","","7","81"
"2586","0","html-button-response","46","186682","0.0-46.0","5fc2a5c0ddfca10169395662","5fc2a5c0ddfca10169395662_20240212","","","7","152"
"2823","0","html-button-response","47","190020","0.0-47.0","5fc2a5c0ddfca10169395662","5fc2a5c0ddfca10169395662_20240212","","","6","154"
"2930","0","html-button-response","48","193462","0.0-48.0","5fc2a5c0ddfca10169395662","5fc2a5c0ddfca10169395662_20240212","","","7","77"
"2178","0","html-button-response","49","196142","0.0-49.0","5fc2a5c0ddfca10169395662","5fc2a5c0ddfca10169395662_20240212","","","8","73"
"2076","0","html-button-response","50","198730","0.0-50.0","5fc2a5c0ddfca10169395662","5fc2a5c0ddfca10169395662_20240212","","","7","149"
"3709","0","html-button-response","51","202954","0.0-51.0","5fc2a5c0ddfca10169395662","5fc2a5c0ddfca10169395662_20240212","","","7","80"
"2443","0","html-button-response","52","205914","0.0-52.0","5fc2a5c0ddfca10169395662","5fc2a5c0ddfca10169395662_20240212","","","5","21"
"4949","0","html-button-response","53","211367","0.0-53.0","5fc2a5c0ddfca10169395662","5fc2a5c0ddfca10169395662_20240212","","","7","88"
"2100","0","html-button-response","54","213973","0.0-54.0","5fc2a5c0ddfca10169395662","5fc2a5c0ddfca10169395662_20240212","","","7","76"
"2937","0","html-button-response","55","217427","0.0-55.0","5fc2a5c0ddfca10169395662","5fc2a5c0ddfca10169395662_20240212","","","7","144"
"2151","0","html-button-response","56","220093","0.0-56.0","5fc2a5c0ddfca10169395662","5fc2a5c0ddfca10169395662_20240212","","","7","141"
"4652","0","html-button-response","57","225254","0.0-57.0","5fc2a5c0ddfca10169395662","5fc2a5c0ddfca10169395662_20240212","","","6","147"
"2409","0","html-button-response","58","228174","0.0-58.0","5fc2a5c0ddfca10169395662","5fc2a5c0ddfca10169395662_20240212","","","7","79"
"2219","0","html-button-response","59","230895","0.0-59.0","5fc2a5c0ddfca10169395662","5fc2a5c0ddfca10169395662_20240212","","","7","82"
"3625","0","html-button-response","60","235023","0.0-60.0","5fc2a5c0ddfca10169395662","5fc2a5c0ddfca10169395662_20240212","","","7","142"
"2120","0","html-button-response","61","237654","0.0-61.0","5fc2a5c0ddfca10169395662","5fc2a5c0ddfca10169395662_20240212","","","7","150"
"2344","0","html-button-response","62","240510","0.0-62.0","5fc2a5c0ddfca10169395662","5fc2a5c0ddfca10169395662_20240212","","","7","74"
"2121","0","html-button-response","63","243134","0.0-63.0","5fc2a5c0ddfca10169395662","5fc2a5c0ddfca10169395662_20240212","","","7","89"
"4300","0","html-button-response","64","247943","0.0-64.0","5fc2a5c0ddfca10169395662","5fc2a5c0ddfca10169395662_20240212","","","6","30"
"1982","0","html-button-response","65","250438","0.0-65.0","5fc2a5c0ddfca10169395662","5fc2a5c0ddfca10169395662_20240212","","","5","28"
"1493","0","html-button-response","66","252447","0.0-66.0","5fc2a5c0ddfca10169395662","5fc2a5c0ddfca10169395662_20240212","","","",""
"8500","0","html-button-response","67","261463","0.0-67.0","5fc2a5c0ddfca10169395662","5fc2a5c0ddfca10169395662_20240212","","","8","18"
"3297","0","html-button-response","68","265275","0.0-68.0","5fc2a5c0ddfca10169395662","5fc2a5c0ddfca10169395662_20240212","","","9","115"
"8115","0","html-button-response","69","273903","0.0-69.0","5fc2a5c0ddfca10169395662","5fc2a5c0ddfca10169395662_20240212","","","8","12"
"5399","0","html-button-response","70","279810","0.0-70.0","5fc2a5c0ddfca10169395662","5fc2a5c0ddfca10169395662_20240212","","","8","8"
"5155","0","html-button-response","71","285478","0.0-71.0","5fc2a5c0ddfca10169395662","5fc2a5c0ddfca10169395662_20240212","","","5","67"
"2469","0","html-button-response","72","288455","0.0-72.0","5fc2a5c0ddfca10169395662","5fc2a5c0ddfca10169395662_20240212","","","8","14"
"3422","0","html-button-response","73","292391","0.0-73.0","5fc2a5c0ddfca10169395662","5fc2a5c0ddfca10169395662_20240212","","","9","120"
"1982","0","html-button-response","74","294875","0.0-74.0","5fc2a5c0ddfca10169395662","5fc2a5c0ddfca10169395662_20240212","","","9","129"
"1983","0","html-button-response","75","297359","0.0-75.0","5fc2a5c0ddfca10169395662","5fc2a5c0ddfca10169395662_20240212","","","9","117"
"3085","0","html-button-response","76","300959","0.0-76.0","5fc2a5c0ddfca10169395662","5fc2a5c0ddfca10169395662_20240212","","","9","116"
"2413","0","html-button-response","77","303875","0.0-77.0","5fc2a5c0ddfca10169395662","5fc2a5c0ddfca10169395662_20240212","","","9","124"
"2616","0","html-button-response","78","306995","0.0-78.0","5fc2a5c0ddfca10169395662","5fc2a5c0ddfca10169395662_20240212","","","9","4"
"3516","0","html-button-response","79","311018","0.0-79.0","5fc2a5c0ddfca10169395662","5fc2a5c0ddfca10169395662_20240212","","","8","59"
"2003","0","html-button-response","80","313526","0.0-80.0","5fc2a5c0ddfca10169395662","5fc2a5c0ddfca10169395662_20240212","","","8","111"
"6295","0","html-button-response","81","320331","0.0-81.0","5fc2a5c0ddfca10169395662","5fc2a5c0ddfca10169395662_20240212","","","7","17"
"3401","0","html-button-response","82","324247","0.0-82.0","5fc2a5c0ddfca10169395662","5fc2a5c0ddfca10169395662_20240212","","","5","11"
"2655","0","html-button-response","83","327419","0.0-83.0","5fc2a5c0ddfca10169395662","5fc2a5c0ddfca10169395662_20240212","","","8","3"
"2544","0","html-button-response","84","330467","0.0-84.0","5fc2a5c0ddfca10169395662","5fc2a5c0ddfca10169395662_20240212","","","8","13"
"3082","0","html-button-response","85","334050","0.0-85.0","5fc2a5c0ddfca10169395662","5fc2a5c0ddfca10169395662_20240212","","","8","16"
"3011","0","html-button-response","86","337578","0.0-86.0","5fc2a5c0ddfca10169395662","5fc2a5c0ddfca10169395662_20240212","","","9","65"
"1878","0","html-button-response","87","339969","0.0-87.0","5fc2a5c0ddfca10169395662","5fc2a5c0ddfca10169395662_20240212","","","9","15"
"3378","0","html-button-response","88","343858","0.0-88.0","5fc2a5c0ddfca10169395662","5fc2a5c0ddfca10169395662_20240212","","","8","71"
"2098","0","html-button-response","89","346474","0.0-89.0","5fc2a5c0ddfca10169395662","5fc2a5c0ddfca10169395662_20240212","","","9","55"
"3273","0","html-button-response","90","350250","0.0-90.0","5fc2a5c0ddfca10169395662","5fc2a5c0ddfca10169395662_20240212","","","9","128"
"2555","0","html-button-response","91","353315","0.0-91.0","5fc2a5c0ddfca10169395662","5fc2a5c0ddfca10169395662_20240212","","","9","109"
"1914","0","html-button-response","92","355740","0.0-92.0","5fc2a5c0ddfca10169395662","5fc2a5c0ddfca10169395662_20240212","","","9","123"
"3327","0","html-button-response","93","359571","0.0-93.0","5fc2a5c0ddfca10169395662","5fc2a5c0ddfca10169395662_20240212","","","8","6"
"3285","0","html-button-response","94","363363","0.0-94.0","5fc2a5c0ddfca10169395662","5fc2a5c0ddfca10169395662_20240212","","","9","127"
"2140","0","html-button-response","95","366018","0.0-95.0","5fc2a5c0ddfca10169395662","5fc2a5c0ddfca10169395662_20240212","","","9","131"
"3901","0","html-button-response","96","370434","0.0-96.0","5fc2a5c0ddfca10169395662","5fc2a5c0ddfca10169395662_20240212","","","8","130"
"3246","0","html-button-response","97","374186","0.0-97.0","5fc2a5c0ddfca10169395662","5fc2a5c0ddfca10169395662_20240212","","","8","72"
"2082","0","html-button-response","98","376778","0.0-98.0","5fc2a5c0ddfca10169395662","5fc2a5c0ddfca10169395662_20240212","","","8","118"
"2826","0","html-button-response","99","380106","0.0-99.0","5fc2a5c0ddfca10169395662","5fc2a5c0ddfca10169395662_20240212","","","8","66"
"4514","0","html-button-response","100","385123","0.0-100.0","5fc2a5c0ddfca10169395662","5fc2a5c0ddfca10169395662_20240212","","","7","10"
"4774","0","html-button-response","101","390403","0.0-101.0","5fc2a5c0ddfca10169395662","5fc2a5c0ddfca10169395662_20240212","","","8","7"
"2147","0","html-button-response","102","393059","0.0-102.0","5fc2a5c0ddfca10169395662","5fc2a5c0ddfca10169395662_20240212","","","8","121"
"2280","0","html-button-response","103","395852","0.0-103.0","5fc2a5c0ddfca10169395662","5fc2a5c0ddfca10169395662_20240212","","","8","114"
"4444","0","html-button-response","104","400809","0.0-104.0","5fc2a5c0ddfca10169395662","5fc2a5c0ddfca10169395662_20240212","","","8","126"
"3148","0","html-button-response","105","404474","0.0-105.0","5fc2a5c0ddfca10169395662","5fc2a5c0ddfca10169395662_20240212","","","9","5"
"7694","0","html-button-response","106","412683","0.0-106.0","5fc2a5c0ddfca10169395662","5fc2a5c0ddfca10169395662_20240212","","","5","9"
"2555","0","html-button-response","107","415754","0.0-107.0","5fc2a5c0ddfca10169395662","5fc2a5c0ddfca10169395662_20240212","","","9","119"
"3494","0","html-button-response","108","419763","0.0-108.0","5fc2a5c0ddfca10169395662","5fc2a5c0ddfca10169395662_20240212","","","9","69"
"2042","0","html-button-response","109","422311","0.0-109.0","5fc2a5c0ddfca10169395662","5fc2a5c0ddfca10169395662_20240212","","","8","112"
"3506","0","html-button-response","110","426320","0.0-110.0","5fc2a5c0ddfca10169395662","5fc2a5c0ddfca10169395662_20240212","","","7","70"
"7385","0","html-button-response","111","434221","0.0-111.0","5fc2a5c0ddfca10169395662","5fc2a5c0ddfca10169395662_20240212","","","5","2"
"4440","0","html-button-response","112","439166","0.0-112.0","5fc2a5c0ddfca10169395662","5fc2a5c0ddfca10169395662_20240212","","","8","122"
"3549","0","html-button-response","113","443223","0.0-113.0","5fc2a5c0ddfca10169395662","5fc2a5c0ddfca10169395662_20240212","","","6","56"
"4397","0","html-button-response","114","448135","0.0-114.0","5fc2a5c0ddfca10169395662","5fc2a5c0ddfca10169395662_20240212","","","2","60"
"2916","0","html-button-response","115","451568","0.0-115.0","5fc2a5c0ddfca10169395662","5fc2a5c0ddfca10169395662_20240212","","","8","62"
"3887","0","html-button-response","116","455966","0.0-116.0","5fc2a5c0ddfca10169395662","5fc2a5c0ddfca10169395662_20240212","","","3","68"
"2930","0","html-button-response","117","459399","0.0-117.0","5fc2a5c0ddfca10169395662","5fc2a5c0ddfca10169395662_20240212","","","8","57"
"2044","0","html-button-response","118","461958","0.0-118.0","5fc2a5c0ddfca10169395662","5fc2a5c0ddfca10169395662_20240212","","","8","58"
"5793","0","html-button-response","119","468255","0.0-119.0","5fc2a5c0ddfca10169395662","5fc2a5c0ddfca10169395662_20240212","","","8","64"
"2105","0","html-button-response","120","470871","0.0-120.0","5fc2a5c0ddfca10169395662","5fc2a5c0ddfca10169395662_20240212","","","8","113"
"2243","0","html-button-response","121","473630","0.0-121.0","5fc2a5c0ddfca10169395662","5fc2a5c0ddfca10169395662_20240212","","","8","110"
"5534","0","html-button-response","122","479679","0.0-122.0","5fc2a5c0ddfca10169395662","5fc2a5c0ddfca10169395662_20240212","","","6","1"
"3297","0","html-button-response","123","483479","0.0-123.0","5fc2a5c0ddfca10169395662","5fc2a5c0ddfca10169395662_20240212","","","3","63"
"3595","0","html-button-response","124","487591","0.0-124.0","5fc2a5c0ddfca10169395662","5fc2a5c0ddfca10169395662_20240212","","","5","125"
"2637","0","html-button-response","125","490735","0.0-125.0","5fc2a5c0ddfca10169395662","5fc2a5c0ddfca10169395662_20240212","","","8","61"
"1254","0","html-button-response","126","492502","0.0-126.0","5fc2a5c0ddfca10169395662","5fc2a5c0ddfca10169395662_20240212","","","",""
"5914","0","html-button-response","127","498927","0.0-127.0","5fc2a5c0ddfca10169395662","5fc2a5c0ddfca10169395662_20240212","","","7","161"
"4251","0","html-button-response","128","503687","0.0-128.0","5fc2a5c0ddfca10169395662","5fc2a5c0ddfca10169395662_20240212","","","5","52"
"2967","0","html-button-response","129","507166","0.0-129.0","5fc2a5c0ddfca10169395662","5fc2a5c0ddfca10169395662_20240212","","","6","46"
"3562","0","html-button-response","130","511239","0.0-130.0","5fc2a5c0ddfca10169395662","5fc2a5c0ddfca10169395662_20240212","","","6","183"
"6555","0","html-button-response","131","518310","0.0-131.0","5fc2a5c0ddfca10169395662","5fc2a5c0ddfca10169395662_20240212","","","8","106"
"3988","0","html-button-response","132","522815","0.0-132.0","5fc2a5c0ddfca10169395662","5fc2a5c0ddfca10169395662_20240212","","","2","53"
"3076","0","html-button-response","133","526403","0.0-133.0","5fc2a5c0ddfca10169395662","5fc2a5c0ddfca10169395662_20240212","","","8","98"
"2201","0","html-button-response","134","529105","0.0-134.0","5fc2a5c0ddfca10169395662","5fc2a5c0ddfca10169395662_20240212","","","8","95"
"5017","0","html-button-response","135","534627","0.0-135.0","5fc2a5c0ddfca10169395662","5fc2a5c0ddfca10169395662_20240212","","","6","182"
"3236","0","html-button-response","136","538367","0.0-136.0","5fc2a5c0ddfca10169395662","5fc2a5c0ddfca10169395662_20240212","","","5","39"
"2002","0","html-button-response","137","540881","0.0-137.0","5fc2a5c0ddfca10169395662","5fc2a5c0ddfca10169395662_20240212","","","6","157"
"3857","0","html-button-response","138","545251","0.0-138.0","5fc2a5c0ddfca10169395662","5fc2a5c0ddfca10169395662_20240212","","","8","92"
"2632","0","html-button-response","139","548387","0.0-139.0","5fc2a5c0ddfca10169395662","5fc2a5c0ddfca10169395662_20240212","","","7","160"
"1917","0","html-button-response","140","550818","0.0-140.0","5fc2a5c0ddfca10169395662","5fc2a5c0ddfca10169395662_20240212","","","7","170"
"3866","0","html-button-response","141","555187","0.0-141.0","5fc2a5c0ddfca10169395662","5fc2a5c0ddfca10169395662_20240212","","","6","159"
"1985","0","html-button-response","142","557675","0.0-142.0","5fc2a5c0ddfca10169395662","5fc2a5c0ddfca10169395662_20240212","","","6","169"
"2156","0","html-button-response","143","560342","0.0-143.0","5fc2a5c0ddfca10169395662","5fc2a5c0ddfca10169395662_20240212","","","8","101"
"5598","0","html-button-response","144","566451","0.0-144.0","5fc2a5c0ddfca10169395662","5fc2a5c0ddfca10169395662_20240212","","","6","172"
"5072","0","html-button-response","145","572030","0.0-145.0","5fc2a5c0ddfca10169395662","5fc2a5c0ddfca10169395662_20240212","","","8","99"
"2365","0","html-button-response","146","574899","0.0-146.0","5fc2a5c0ddfca10169395662","5fc2a5c0ddfca10169395662_20240212","","","5","54"
"2098","0","html-button-response","147","577499","0.0-147.0","5fc2a5c0ddfca10169395662","5fc2a5c0ddfca10169395662_20240212","","","8","96"
"3412","0","html-button-response","148","581418","0.0-148.0","5fc2a5c0ddfca10169395662","5fc2a5c0ddfca10169395662_20240212","","","5","44"
"1834","0","html-button-response","149","583754","0.0-149.0","5fc2a5c0ddfca10169395662","5fc2a5c0ddfca10169395662_20240212","","","5","43"
"3834","0","html-button-response","150","588098","0.0-150.0","5fc2a5c0ddfca10169395662","5fc2a5c0ddfca10169395662_20240212","","","6","40"
"4021","0","html-button-response","151","592627","0.0-151.0","5fc2a5c0ddfca10169395662","5fc2a5c0ddfca10169395662_20240212","","","3","45"
"2952","0","html-button-response","152","596090","0.0-152.0","5fc2a5c0ddfca10169395662","5fc2a5c0ddfca10169395662_20240212","","","1","47"
"2687","0","html-button-response","153","599282","0.0-153.0","5fc2a5c0ddfca10169395662","5fc2a5c0ddfca10169395662_20240212","","","5","93"
"5395","0","html-button-response","154","605194","0.0-154.0","5fc2a5c0ddfca10169395662","5fc2a5c0ddfca10169395662_20240212","","","5","50"
"2428","0","html-button-response","155","608130","0.0-155.0","5fc2a5c0ddfca10169395662","5fc2a5c0ddfca10169395662_20240212","","","8","103"
"3347","0","html-button-response","156","611979","0.0-156.0","5fc2a5c0ddfca10169395662","5fc2a5c0ddfca10169395662_20240212","","","8","97"
"2265","0","html-button-response","157","614747","0.0-157.0","5fc2a5c0ddfca10169395662","5fc2a5c0ddfca10169395662_20240212","","","7","166"
"3795","0","html-button-response","158","619058","0.0-158.0","5fc2a5c0ddfca10169395662","5fc2a5c0ddfca10169395662_20240212","","","8","156"
"2410","0","html-button-response","159","621978","0.0-159.0","5fc2a5c0ddfca10169395662","5fc2a5c0ddfca10169395662_20240212","","","8","94"
"2899","0","html-button-response","160","625383","0.0-160.0","5fc2a5c0ddfca10169395662","5fc2a5c0ddfca10169395662_20240212","","","5","49"
"3786","0","html-button-response","161","629678","0.0-161.0","5fc2a5c0ddfca10169395662","5fc2a5c0ddfca10169395662_20240212","","","6","164"
"4045","0","html-button-response","162","634226","0.0-162.0","5fc2a5c0ddfca10169395662","5fc2a5c0ddfca10169395662_20240212","","","6","174"
"5384","0","html-button-response","163","640118","0.0-163.0","5fc2a5c0ddfca10169395662","5fc2a5c0ddfca10169395662_20240212","","","4","181"
"2875","0","html-button-response","164","643510","0.0-164.0","5fc2a5c0ddfca10169395662","5fc2a5c0ddfca10169395662_20240212","","","5","41"
"3190","0","html-button-response","165","647207","0.0-165.0","5fc2a5c0ddfca10169395662","5fc2a5c0ddfca10169395662_20240212","","","3","38"
"3097","0","html-button-response","166","650807","0.0-166.0","5fc2a5c0ddfca10169395662","5fc2a5c0ddfca10169395662_20240212","","","7","155"
"2277","0","html-button-response","167","653591","0.0-167.0","5fc2a5c0ddfca10169395662","5fc2a5c0ddfca10169395662_20240212","","","8","107"
"1910","0","html-button-response","168","656015","0.0-168.0","5fc2a5c0ddfca10169395662","5fc2a5c0ddfca10169395662_20240212","","","7","171"
"2914","0","html-button-response","169","659431","0.0-169.0","5fc2a5c0ddfca10169395662","5fc2a5c0ddfca10169395662_20240212","","","6","37"
"1777","0","html-button-response","170","661719","0.0-170.0","5fc2a5c0ddfca10169395662","5fc2a5c0ddfca10169395662_20240212","","","6","173"
"2833","0","html-button-response","171","665063","0.0-171.0","5fc2a5c0ddfca10169395662","5fc2a5c0ddfca10169395662_20240212","","","6","177"
"3219","0","html-button-response","172","668799","0.0-172.0","5fc2a5c0ddfca10169395662","5fc2a5c0ddfca10169395662_20240212","","","5","91"
"2316","0","html-button-response","173","671623","0.0-173.0","5fc2a5c0ddfca10169395662","5fc2a5c0ddfca10169395662_20240212","","","7","108"
"2129","0","html-button-response","174","674263","0.0-174.0","5fc2a5c0ddfca10169395662","5fc2a5c0ddfca10169395662_20240212","","","7","175"
"3434","0","html-button-response","175","678207","0.0-175.0","5fc2a5c0ddfca10169395662","5fc2a5c0ddfca10169395662_20240212","","","2","51"
"3307","0","html-button-response","176","682019","0.0-176.0","5fc2a5c0ddfca10169395662","5fc2a5c0ddfca10169395662_20240212","","","5","42"
"3533","0","html-button-response","177","686063","0.0-177.0","5fc2a5c0ddfca10169395662","5fc2a5c0ddfca10169395662_20240212","","","6","176"
"2742","0","html-button-response","178","689311","0.0-178.0","5fc2a5c0ddfca10169395662","5fc2a5c0ddfca10169395662_20240212","","","6","105"
"4915","0","html-button-response","179","694728","0.0-179.0","5fc2a5c0ddfca10169395662","5fc2a5c0ddfca10169395662_20240212","","","7","158"
"1719","0","html-button-response","180","696951","0.0-180.0","5fc2a5c0ddfca10169395662","5fc2a5c0ddfca10169395662_20240212","","","8","104"
"2658","0","html-button-response","181","700126","0.0-181.0","5fc2a5c0ddfca10169395662","5fc2a5c0ddfca10169395662_20240212","","","6","165"
"2325","0","html-button-response","182","702959","0.0-182.0","5fc2a5c0ddfca10169395662","5fc2a5c0ddfca10169395662_20240212","","","6","162"
"2227","0","html-button-response","183","705702","0.0-183.0","5fc2a5c0ddfca10169395662","5fc2a5c0ddfca10169395662_20240212","","","7","163"
"2067","0","html-button-response","184","708286","0.0-184.0","5fc2a5c0ddfca10169395662","5fc2a5c0ddfca10169395662_20240212","","","7","167"
"3896","0","html-button-response","185","712687","0.0-185.0","5fc2a5c0ddfca10169395662","5fc2a5c0ddfca10169395662_20240212","","","8","100"
"2155","0","html-button-response","186","715356","0.0-186.0","5fc2a5c0ddfca10169395662","5fc2a5c0ddfca10169395662_20240212","","","7","168"
"2327","0","html-button-response","187","718199","0.0-187.0","5fc2a5c0ddfca10169395662","5fc2a5c0ddfca10169395662_20240212","","","8","102"
"2827","0","html-button-response","188","721543","0.0-188.0","5fc2a5c0ddfca10169395662","5fc2a5c0ddfca10169395662_20240212","","","6","48"
"1438","0","html-button-response","189","723491","0.0-189.0","5fc2a5c0ddfca10169395662","5fc2a5c0ddfca10169395662_20240212","","Thank you. You have reached the end. 
                       <br>Click the button below to reveal your compensation.
                        <br><br>","",""
