rt,response,trial_type,trial_index,time_elapsed,internal_node_id,part_ID,ID_DATE,screen_id,stimulus,rating,img_id
1800,0,html-button-response,0,1809,0.0-0.0,62e811bddf540837ec38367c,62e811bddf540837ec38367c_20240212,,,,
2140,[object Object],survey-html-form,1,4465,0.0-1.0,62e811bddf540837ec38367c,62e811bddf540837ec38367c_20240212,prolific_id_page,,,
6443,0,html-button-response,2,10909,0.0-2.0,62e811bddf540837ec38367c,62e811bddf540837ec38367c_20240212,,,,
885,0,html-button-response,3,12303,0.0-3.0,62e811bddf540837ec38367c,62e811bddf540837ec38367c_20240212,,"
<div>
Great! You will now go on to rate the faces.
<br><br>
</div>
",,
5061,0,html-button-response,4,17872,0.0-4.0,62e811bddf540837ec38367c,62e811bddf540837ec38367c_20240212,,,8,129
3188,0,html-button-response,5,21565,0.0-5.0,62e811bddf540837ec38367c,62e811bddf540837ec38367c_20240212,,,5,17
2855,0,html-button-response,6,24937,0.0-6.0,62e811bddf540837ec38367c,62e811bddf540837ec38367c_20240212,,,7,118
2124,0,html-button-response,7,27567,0.0-7.0,62e811bddf540837ec38367c,62e811bddf540837ec38367c_20240212,,,5,18
4937,0,html-button-response,8,33010,0.0-8.0,62e811bddf540837ec38367c,62e811bddf540837ec38367c_20240212,,,4,1
2212,0,html-button-response,9,35735,0.0-9.0,62e811bddf540837ec38367c,62e811bddf540837ec38367c_20240212,,,8,6
1927,0,html-button-response,10,38165,0.0-10.0,62e811bddf540837ec38367c,62e811bddf540837ec38367c_20240212,,,8,116
2022,0,html-button-response,11,40698,0.0-11.0,62e811bddf540837ec38367c,62e811bddf540837ec38367c_20240212,,,5,110
1638,0,html-button-response,12,42840,0.0-12.0,62e811bddf540837ec38367c,62e811bddf540837ec38367c_20240212,,,5,123
2901,0,html-button-response,13,46255,0.0-13.0,62e811bddf540837ec38367c,62e811bddf540837ec38367c_20240212,,,2,60
2105,0,html-button-response,14,48864,0.0-14.0,62e811bddf540837ec38367c,62e811bddf540837ec38367c_20240212,,,8,112
1714,0,html-button-response,15,51092,0.0-15.0,62e811bddf540837ec38367c,62e811bddf540837ec38367c_20240212,,,9,119
1589,0,html-button-response,16,53186,0.0-16.0,62e811bddf540837ec38367c,62e811bddf540837ec38367c_20240212,,,8,120
2238,0,html-button-response,17,55939,0.0-17.0,62e811bddf540837ec38367c,62e811bddf540837ec38367c_20240212,,,1,13
1977,0,html-button-response,18,58428,0.0-18.0,62e811bddf540837ec38367c,62e811bddf540837ec38367c_20240212,,,1,9
2063,0,html-button-response,19,60993,0.0-19.0,62e811bddf540837ec38367c,62e811bddf540837ec38367c_20240212,,,4,15
2465,0,html-button-response,20,63967,0.0-20.0,62e811bddf540837ec38367c,62e811bddf540837ec38367c_20240212,,,7,62
2518,0,html-button-response,21,66988,0.0-21.0,62e811bddf540837ec38367c,62e811bddf540837ec38367c_20240212,,,9,117
1958,0,html-button-response,22,69455,0.0-22.0,62e811bddf540837ec38367c,62e811bddf540837ec38367c_20240212,,,8,122
1729,0,html-button-response,23,71699,0.0-23.0,62e811bddf540837ec38367c,62e811bddf540837ec38367c_20240212,,,4,72
2571,0,html-button-response,24,74777,0.0-24.0,62e811bddf540837ec38367c,62e811bddf540837ec38367c_20240212,,,6,68
1898,0,html-button-response,25,77189,0.0-25.0,62e811bddf540837ec38367c,62e811bddf540837ec38367c_20240212,,,3,14
1933,0,html-button-response,26,79623,0.0-26.0,62e811bddf540837ec38367c,62e811bddf540837ec38367c_20240212,,,7,109
2510,0,html-button-response,27,82639,0.0-27.0,62e811bddf540837ec38367c,62e811bddf540837ec38367c_20240212,,,4,7
1633,0,html-button-response,28,84787,0.0-28.0,62e811bddf540837ec38367c,62e811bddf540837ec38367c_20240212,,,7,113
2031,0,html-button-response,29,87333,0.0-29.0,62e811bddf540837ec38367c,62e811bddf540837ec38367c_20240212,,,6,66
2183,0,html-button-response,30,90018,0.0-30.0,62e811bddf540837ec38367c,62e811bddf540837ec38367c_20240212,,,7,55
1864,0,html-button-response,31,92387,0.0-31.0,62e811bddf540837ec38367c,62e811bddf540837ec38367c_20240212,,,7,125
1886,0,html-button-response,32,94788,0.0-32.0,62e811bddf540837ec38367c,62e811bddf540837ec38367c_20240212,,,7,124
1707,0,html-button-response,33,97001,0.0-33.0,62e811bddf540837ec38367c,62e811bddf540837ec38367c_20240212,,,5,131
2094,0,html-button-response,34,99654,0.0-34.0,62e811bddf540837ec38367c,62e811bddf540837ec38367c_20240212,,,1,71
1995,0,html-button-response,35,102152,0.0-35.0,62e811bddf540837ec38367c,62e811bddf540837ec38367c_20240212,,,2,16
2002,0,html-button-response,36,104658,0.0-36.0,62e811bddf540837ec38367c,62e811bddf540837ec38367c_20240212,,,6,128
1618,0,html-button-response,37,106831,0.0-37.0,62e811bddf540837ec38367c,62e811bddf540837ec38367c_20240212,,,1,12
1878,0,html-button-response,38,109223,0.0-38.0,62e811bddf540837ec38367c,62e811bddf540837ec38367c_20240212,,,5,61
1542,0,html-button-response,39,111268,0.0-39.0,62e811bddf540837ec38367c,62e811bddf540837ec38367c_20240212,,,3,4
1864,0,html-button-response,40,113634,0.0-40.0,62e811bddf540837ec38367c,62e811bddf540837ec38367c_20240212,,,5,114
2997,0,html-button-response,41,117139,0.0-41.0,62e811bddf540837ec38367c,62e811bddf540837ec38367c_20240212,,,7,111
1900,0,html-button-response,42,119545,0.0-42.0,62e811bddf540837ec38367c,62e811bddf540837ec38367c_20240212,,,5,56
2022,0,html-button-response,43,122080,0.0-43.0,62e811bddf540837ec38367c,62e811bddf540837ec38367c_20240212,,,7,8
1514,0,html-button-response,44,124108,0.0-44.0,62e811bddf540837ec38367c,62e811bddf540837ec38367c_20240212,,,9,121
1464,0,html-button-response,45,126122,0.0-45.0,62e811bddf540837ec38367c,62e811bddf540837ec38367c_20240212,,,9,126
1693,0,html-button-response,46,128362,0.0-46.0,62e811bddf540837ec38367c,62e811bddf540837ec38367c_20240212,,,3,64
1506,0,html-button-response,47,130381,0.0-47.0,62e811bddf540837ec38367c,62e811bddf540837ec38367c_20240212,,,6,69
1598,0,html-button-response,48,132492,0.0-48.0,62e811bddf540837ec38367c,62e811bddf540837ec38367c_20240212,,,2,3
1912,0,html-button-response,49,134909,0.0-49.0,62e811bddf540837ec38367c,62e811bddf540837ec38367c_20240212,,,3,59
2218,0,html-button-response,50,137641,0.0-50.0,62e811bddf540837ec38367c,62e811bddf540837ec38367c_20240212,,,8,127
2885,0,html-button-response,51,141041,0.0-51.0,62e811bddf540837ec38367c,62e811bddf540837ec38367c_20240212,,,3,65
2668,0,html-button-response,52,144215,0.0-52.0,62e811bddf540837ec38367c,62e811bddf540837ec38367c_20240212,,,1,10
3148,0,html-button-response,53,147873,0.0-53.0,62e811bddf540837ec38367c,62e811bddf540837ec38367c_20240212,,,4,67
3082,0,html-button-response,54,151459,0.0-54.0,62e811bddf540837ec38367c,62e811bddf540837ec38367c_20240212,,,4,70
2015,0,html-button-response,55,153989,0.0-55.0,62e811bddf540837ec38367c,62e811bddf540837ec38367c_20240212,,,1,2
1444,0,html-button-response,56,155939,0.0-56.0,62e811bddf540837ec38367c,62e811bddf540837ec38367c_20240212,,,7,130
2016,0,html-button-response,57,158505,0.0-57.0,62e811bddf540837ec38367c,62e811bddf540837ec38367c_20240212,,,3,11
1631,0,html-button-response,58,160637,0.0-58.0,62e811bddf540837ec38367c,62e811bddf540837ec38367c_20240212,,,6,58
2216,0,html-button-response,59,163362,0.0-59.0,62e811bddf540837ec38367c,62e811bddf540837ec38367c_20240212,,,1,63
2022,0,html-button-response,60,165896,0.0-60.0,62e811bddf540837ec38367c,62e811bddf540837ec38367c_20240212,,,6,57
2548,0,html-button-response,61,168959,0.0-61.0,62e811bddf540837ec38367c,62e811bddf540837ec38367c_20240212,,,6,5
2270,0,html-button-response,62,171735,0.0-62.0,62e811bddf540837ec38367c,62e811bddf540837ec38367c_20240212,,,6,115
1121,0,html-button-response,63,173362,0.0-63.0,62e811bddf540837ec38367c,62e811bddf540837ec38367c_20240212,,,,
2614,0,html-button-response,64,176481,0.0-64.0,62e811bddf540837ec38367c,62e811bddf540837ec38367c_20240212,,,7,142
1510,0,html-button-response,65,178506,0.0-65.0,62e811bddf540837ec38367c,62e811bddf540837ec38367c_20240212,,,8,136
3614,0,html-button-response,66,182636,0.0-66.0,62e811bddf540837ec38367c,62e811bddf540837ec38367c_20240212,,,3,21
1633,0,html-button-response,67,184831,0.0-67.0,62e811bddf540837ec38367c,62e811bddf540837ec38367c_20240212,,,8,30
2182,0,html-button-response,68,187522,0.0-68.0,62e811bddf540837ec38367c,62e811bddf540837ec38367c_20240212,,,8,132
1874,0,html-button-response,69,189911,0.0-69.0,62e811bddf540837ec38367c,62e811bddf540837ec38367c_20240212,,,7,28
1756,0,html-button-response,70,192170,0.0-70.0,62e811bddf540837ec38367c,62e811bddf540837ec38367c_20240212,,,8,152
1694,0,html-button-response,71,194370,0.0-71.0,62e811bddf540837ec38367c,62e811bddf540837ec38367c_20240212,,,4,20
1885,0,html-button-response,72,196761,0.0-72.0,62e811bddf540837ec38367c,62e811bddf540837ec38367c_20240212,,,8,89
1926,0,html-button-response,73,199192,0.0-73.0,62e811bddf540837ec38367c,62e811bddf540837ec38367c_20240212,,,8,145
1456,0,html-button-response,74,201155,0.0-74.0,62e811bddf540837ec38367c,62e811bddf540837ec38367c_20240212,,,8,150
1909,0,html-button-response,75,203571,0.0-75.0,62e811bddf540837ec38367c,62e811bddf540837ec38367c_20240212,,,8,133
3021,0,html-button-response,76,207097,0.0-76.0,62e811bddf540837ec38367c,62e811bddf540837ec38367c_20240212,,,8,137
2108,0,html-button-response,77,209719,0.0-77.0,62e811bddf540837ec38367c,62e811bddf540837ec38367c_20240212,,,6,23
1692,0,html-button-response,78,211927,0.0-78.0,62e811bddf540837ec38367c,62e811bddf540837ec38367c_20240212,,,6,35
1354,0,html-button-response,79,213795,0.0-79.0,62e811bddf540837ec38367c,62e811bddf540837ec38367c_20240212,,,7,140
1641,0,html-button-response,80,215951,0.0-80.0,62e811bddf540837ec38367c,62e811bddf540837ec38367c_20240212,,,7,138
3525,0,html-button-response,81,219987,0.0-81.0,62e811bddf540837ec38367c,62e811bddf540837ec38367c_20240212,,,5,83
1927,0,html-button-response,82,222417,0.0-82.0,62e811bddf540837ec38367c,62e811bddf540837ec38367c_20240212,,,8,141
3809,0,html-button-response,83,226739,0.0-83.0,62e811bddf540837ec38367c,62e811bddf540837ec38367c_20240212,,,9,78
1794,0,html-button-response,84,229039,0.0-84.0,62e811bddf540837ec38367c,62e811bddf540837ec38367c_20240212,,,8,82
1307,0,html-button-response,85,230861,0.0-85.0,62e811bddf540837ec38367c,62e811bddf540837ec38367c_20240212,,,8,90
1512,0,html-button-response,86,232883,0.0-86.0,62e811bddf540837ec38367c,62e811bddf540837ec38367c_20240212,,,8,147
1395,0,html-button-response,87,234781,0.0-87.0,62e811bddf540837ec38367c,62e811bddf540837ec38367c_20240212,,,6,27
1212,0,html-button-response,88,236501,0.0-88.0,62e811bddf540837ec38367c,62e811bddf540837ec38367c_20240212,,,6,31
1521,0,html-button-response,89,238527,0.0-89.0,62e811bddf540837ec38367c,62e811bddf540837ec38367c_20240212,,,7,87
1376,0,html-button-response,90,240415,0.0-90.0,62e811bddf540837ec38367c,62e811bddf540837ec38367c_20240212,,,6,22
2451,0,html-button-response,91,243381,0.0-91.0,62e811bddf540837ec38367c,62e811bddf540837ec38367c_20240212,,,7,74
1465,0,html-button-response,92,245347,0.0-92.0,62e811bddf540837ec38367c,62e811bddf540837ec38367c_20240212,,,6,26
1924,0,html-button-response,93,247775,0.0-93.0,62e811bddf540837ec38367c,62e811bddf540837ec38367c_20240212,,,8,135
1177,0,html-button-response,94,249467,0.0-94.0,62e811bddf540837ec38367c,62e811bddf540837ec38367c_20240212,,,8,151
1621,0,html-button-response,95,251590,0.0-95.0,62e811bddf540837ec38367c,62e811bddf540837ec38367c_20240212,,,8,144
1881,0,html-button-response,96,253981,0.0-96.0,62e811bddf540837ec38367c,62e811bddf540837ec38367c_20240212,,,8,88
4667,0,html-button-response,97,259157,0.0-97.0,62e811bddf540837ec38367c,62e811bddf540837ec38367c_20240212,,,9,86
1563,0,html-button-response,98,261235,0.0-98.0,62e811bddf540837ec38367c,62e811bddf540837ec38367c_20240212,,,7,178
1857,0,html-button-response,99,263604,0.0-99.0,62e811bddf540837ec38367c,62e811bddf540837ec38367c_20240212,,,6,32
1868,0,html-button-response,100,265989,0.0-100.0,62e811bddf540837ec38367c,62e811bddf540837ec38367c_20240212,,,8,84
1249,0,html-button-response,101,267745,0.0-101.0,62e811bddf540837ec38367c,62e811bddf540837ec38367c_20240212,,,7,139
1351,0,html-button-response,102,269598,0.0-102.0,62e811bddf540837ec38367c,62e811bddf540837ec38367c_20240212,,,8,154
1583,0,html-button-response,103,271689,0.0-103.0,62e811bddf540837ec38367c,62e811bddf540837ec38367c_20240212,,,8,76
1832,0,html-button-response,104,274037,0.0-104.0,62e811bddf540837ec38367c,62e811bddf540837ec38367c_20240212,,,6,25
1360,0,html-button-response,105,275907,0.0-105.0,62e811bddf540837ec38367c,62e811bddf540837ec38367c_20240212,,,7,146
1207,0,html-button-response,106,277627,0.0-106.0,62e811bddf540837ec38367c,62e811bddf540837ec38367c_20240212,,,7,149
1283,0,html-button-response,107,279415,0.0-107.0,62e811bddf540837ec38367c,62e811bddf540837ec38367c_20240212,,,7,179
1439,0,html-button-response,108,281365,0.0-108.0,62e811bddf540837ec38367c,62e811bddf540837ec38367c_20240212,,,8,85
1405,0,html-button-response,109,283343,0.0-109.0,62e811bddf540837ec38367c,62e811bddf540837ec38367c_20240212,,,8,79
1706,0,html-button-response,110,285559,0.0-110.0,62e811bddf540837ec38367c,62e811bddf540837ec38367c_20240212,,,3,36
1633,0,html-button-response,111,287706,0.0-111.0,62e811bddf540837ec38367c,62e811bddf540837ec38367c_20240212,,,1,34
2344,0,html-button-response,112,290562,0.0-112.0,62e811bddf540837ec38367c,62e811bddf540837ec38367c_20240212,,,2,33
1621,0,html-button-response,113,292689,0.0-113.0,62e811bddf540837ec38367c,62e811bddf540837ec38367c_20240212,,,8,180
1701,0,html-button-response,114,294902,0.0-114.0,62e811bddf540837ec38367c,62e811bddf540837ec38367c_20240212,,,8,143
1700,0,html-button-response,115,297105,0.0-115.0,62e811bddf540837ec38367c,62e811bddf540837ec38367c_20240212,,,6,19
1660,0,html-button-response,116,299268,0.0-116.0,62e811bddf540837ec38367c,62e811bddf540837ec38367c_20240212,,,8,75
1967,0,html-button-response,117,301743,0.0-117.0,62e811bddf540837ec38367c,62e811bddf540837ec38367c_20240212,,,8,134
3206,0,html-button-response,118,305453,0.0-118.0,62e811bddf540837ec38367c,62e811bddf540837ec38367c_20240212,,,7,148
1615,0,html-button-response,119,307584,0.0-119.0,62e811bddf540837ec38367c,62e811bddf540837ec38367c_20240212,,,6,29
1296,0,html-button-response,120,309389,0.0-120.0,62e811bddf540837ec38367c,62e811bddf540837ec38367c_20240212,,,7,81
1622,0,html-button-response,121,311522,0.0-121.0,62e811bddf540837ec38367c,62e811bddf540837ec38367c_20240212,,,7,153
1541,0,html-button-response,122,313567,0.0-122.0,62e811bddf540837ec38367c,62e811bddf540837ec38367c_20240212,,,9,77
1435,0,html-button-response,123,315517,0.0-123.0,62e811bddf540837ec38367c,62e811bddf540837ec38367c_20240212,,,8,73
1636,0,html-button-response,124,317655,0.0-124.0,62e811bddf540837ec38367c,62e811bddf540837ec38367c_20240212,,,6,24
2855,0,html-button-response,125,321013,0.0-125.0,62e811bddf540837ec38367c,62e811bddf540837ec38367c_20240212,,,9,80
798,0,html-button-response,126,322321,0.0-126.0,62e811bddf540837ec38367c,62e811bddf540837ec38367c_20240212,,,,
2650,0,html-button-response,127,325483,0.0-127.0,62e811bddf540837ec38367c,62e811bddf540837ec38367c_20240212,,,7,50
2051,0,html-button-response,128,328048,0.0-128.0,62e811bddf540837ec38367c,62e811bddf540837ec38367c_20240212,,,7,170
1566,0,html-button-response,129,330125,0.0-129.0,62e811bddf540837ec38367c,62e811bddf540837ec38367c_20240212,,,6,54
3080,0,html-button-response,130,333716,0.0-130.0,62e811bddf540837ec38367c,62e811bddf540837ec38367c_20240212,,,6,182
1738,0,html-button-response,131,335965,0.0-131.0,62e811bddf540837ec38367c,62e811bddf540837ec38367c_20240212,,,7,103
2120,0,html-button-response,132,338596,0.0-132.0,62e811bddf540837ec38367c,62e811bddf540837ec38367c_20240212,,,5,177
2510,0,html-button-response,133,341608,0.0-133.0,62e811bddf540837ec38367c,62e811bddf540837ec38367c_20240212,,,6,155
2526,0,html-button-response,134,344639,0.0-134.0,62e811bddf540837ec38367c,62e811bddf540837ec38367c_20240212,,,4,45
1874,0,html-button-response,135,347023,0.0-135.0,62e811bddf540837ec38367c,62e811bddf540837ec38367c_20240212,,,5,53
1701,0,html-button-response,136,349238,0.0-136.0,62e811bddf540837ec38367c,62e811bddf540837ec38367c_20240212,,,7,96
1617,0,html-button-response,137,351359,0.0-137.0,62e811bddf540837ec38367c,62e811bddf540837ec38367c_20240212,,,6,159
1510,0,html-button-response,138,353381,0.0-138.0,62e811bddf540837ec38367c,62e811bddf540837ec38367c_20240212,,,7,104
1487,0,html-button-response,139,355379,0.0-139.0,62e811bddf540837ec38367c,62e811bddf540837ec38367c_20240212,,,6,47
3210,0,html-button-response,140,359101,0.0-140.0,62e811bddf540837ec38367c,62e811bddf540837ec38367c_20240212,,,6,99
1577,0,html-button-response,141,361186,0.0-141.0,62e811bddf540837ec38367c,62e811bddf540837ec38367c_20240212,,,6,164
2173,0,html-button-response,142,363871,0.0-142.0,62e811bddf540837ec38367c,62e811bddf540837ec38367c_20240212,,,6,175
1456,0,html-button-response,143,365837,0.0-143.0,62e811bddf540837ec38367c,62e811bddf540837ec38367c_20240212,,,6,165
1476,0,html-button-response,144,367818,0.0-144.0,62e811bddf540837ec38367c,62e811bddf540837ec38367c_20240212,,,6,172
1672,0,html-button-response,145,370035,0.0-145.0,62e811bddf540837ec38367c,62e811bddf540837ec38367c_20240212,,,7,44
1403,0,html-button-response,146,371989,0.0-146.0,62e811bddf540837ec38367c,62e811bddf540837ec38367c_20240212,,,6,39
2536,0,html-button-response,147,375035,0.0-147.0,62e811bddf540837ec38367c,62e811bddf540837ec38367c_20240212,,,7,48
2598,0,html-button-response,148,378148,0.0-148.0,62e811bddf540837ec38367c,62e811bddf540837ec38367c_20240212,,,8,100
1751,0,html-button-response,149,380400,0.0-149.0,62e811bddf540837ec38367c,62e811bddf540837ec38367c_20240212,,,8,167
2874,0,html-button-response,150,383788,0.0-150.0,62e811bddf540837ec38367c,62e811bddf540837ec38367c_20240212,,,8,37
3177,0,html-button-response,151,387479,0.0-151.0,62e811bddf540837ec38367c,62e811bddf540837ec38367c_20240212,,,8,97
1680,0,html-button-response,152,389663,0.0-152.0,62e811bddf540837ec38367c,62e811bddf540837ec38367c_20240212,,,6,163
1877,0,html-button-response,153,392048,0.0-153.0,62e811bddf540837ec38367c,62e811bddf540837ec38367c_20240212,,,5,51
2287,0,html-button-response,154,394843,0.0-154.0,62e811bddf540837ec38367c,62e811bddf540837ec38367c_20240212,,,5,166
1395,0,html-button-response,155,396744,0.0-155.0,62e811bddf540837ec38367c,62e811bddf540837ec38367c_20240212,,,6,49
1730,0,html-button-response,156,398980,0.0-156.0,62e811bddf540837ec38367c,62e811bddf540837ec38367c_20240212,,,5,93
1785,0,html-button-response,157,401271,0.0-157.0,62e811bddf540837ec38367c,62e811bddf540837ec38367c_20240212,,,4,158
1888,0,html-button-response,158,403692,0.0-158.0,62e811bddf540837ec38367c,62e811bddf540837ec38367c_20240212,,,5,106
1928,0,html-button-response,159,406127,0.0-159.0,62e811bddf540837ec38367c,62e811bddf540837ec38367c_20240212,,,5,168
1615,0,html-button-response,160,408252,0.0-160.0,62e811bddf540837ec38367c,62e811bddf540837ec38367c_20240212,,,6,173
1349,0,html-button-response,161,410111,0.0-161.0,62e811bddf540837ec38367c,62e811bddf540837ec38367c_20240212,,,6,171
1751,0,html-button-response,162,412363,0.0-162.0,62e811bddf540837ec38367c,62e811bddf540837ec38367c_20240212,,,7,92
2750,0,html-button-response,163,415629,0.0-163.0,62e811bddf540837ec38367c,62e811bddf540837ec38367c_20240212,,,6,181
2018,0,html-button-response,164,418155,0.0-164.0,62e811bddf540837ec38367c,62e811bddf540837ec38367c_20240212,,,3,52
1539,0,html-button-response,165,420203,0.0-165.0,62e811bddf540837ec38367c,62e811bddf540837ec38367c_20240212,,,6,102
1437,0,html-button-response,166,422149,0.0-166.0,62e811bddf540837ec38367c,62e811bddf540837ec38367c_20240212,,,6,161
2662,0,html-button-response,167,425382,0.0-167.0,62e811bddf540837ec38367c,62e811bddf540837ec38367c_20240212,,,6,183
1750,0,html-button-response,168,427649,0.0-168.0,62e811bddf540837ec38367c,62e811bddf540837ec38367c_20240212,,,7,174
2006,0,html-button-response,169,430165,0.0-169.0,62e811bddf540837ec38367c,62e811bddf540837ec38367c_20240212,,,8,98
2861,0,html-button-response,170,433536,0.0-170.0,62e811bddf540837ec38367c,62e811bddf540837ec38367c_20240212,,,5,105
2232,0,html-button-response,171,436275,0.0-171.0,62e811bddf540837ec38367c,62e811bddf540837ec38367c_20240212,,,6,95
1912,0,html-button-response,172,438689,0.0-172.0,62e811bddf540837ec38367c,62e811bddf540837ec38367c_20240212,,,5,157
1710,0,html-button-response,173,440900,0.0-173.0,62e811bddf540837ec38367c,62e811bddf540837ec38367c_20240212,,,6,160
1556,0,html-button-response,174,442967,0.0-174.0,62e811bddf540837ec38367c,62e811bddf540837ec38367c_20240212,,,6,176
2022,0,html-button-response,175,445493,0.0-175.0,62e811bddf540837ec38367c,62e811bddf540837ec38367c_20240212,,,2,38
1867,0,html-button-response,176,447865,0.0-176.0,62e811bddf540837ec38367c,62e811bddf540837ec38367c_20240212,,,4,41
2020,0,html-button-response,177,450395,0.0-177.0,62e811bddf540837ec38367c,62e811bddf540837ec38367c_20240212,,,6,43
1975,0,html-button-response,178,452872,0.0-178.0,62e811bddf540837ec38367c,62e811bddf540837ec38367c_20240212,,,6,162
1763,0,html-button-response,179,455152,0.0-179.0,62e811bddf540837ec38367c,62e811bddf540837ec38367c_20240212,,,6,42
2076,0,html-button-response,180,457735,0.0-180.0,62e811bddf540837ec38367c,62e811bddf540837ec38367c_20240212,,,3,91
2227,0,html-button-response,181,460466,0.0-181.0,62e811bddf540837ec38367c,62e811bddf540837ec38367c_20240212,,,5,169
2036,0,html-button-response,182,463005,0.0-182.0,62e811bddf540837ec38367c,62e811bddf540837ec38367c_20240212,,,7,94
1834,0,html-button-response,183,465357,0.0-183.0,62e811bddf540837ec38367c,62e811bddf540837ec38367c_20240212,,,7,101
1841,0,html-button-response,184,467707,0.0-184.0,62e811bddf540837ec38367c,62e811bddf540837ec38367c_20240212,,,8,107
2475,0,html-button-response,185,470698,0.0-185.0,62e811bddf540837ec38367c,62e811bddf540837ec38367c_20240212,,,6,40
2364,0,html-button-response,186,473579,0.0-186.0,62e811bddf540837ec38367c,62e811bddf540837ec38367c_20240212,,,6,156
2515,0,html-button-response,187,476601,0.0-187.0,62e811bddf540837ec38367c,62e811bddf540837ec38367c_20240212,,,6,108
2397,0,html-button-response,188,479511,0.0-188.0,62e811bddf540837ec38367c,62e811bddf540837ec38367c_20240212,,,6,46
801,0,html-button-response,189,480815,0.0-189.0,62e811bddf540837ec38367c,62e811bddf540837ec38367c_20240212,,"Thank you. You have reached the end. 
                       <br>Click the button below to reveal your compensation.
                        <br><br>",,