"rt","response","trial_type","trial_index","time_elapsed","internal_node_id","part_ID","ID_DATE","screen_id","stimulus","rating","img_id"
"5081","0","html-button-response","0","5091","0.0-0.0","622a2b1c561ce3cd95519fd2","622a2b1c561ce3cd95519fd2_20240212","","","",""
"8435","[object Object]","survey-html-form","1","14036","0.0-1.0","622a2b1c561ce3cd95519fd2","622a2b1c561ce3cd95519fd2_20240212","prolific_id_page","","",""
"30331","0","html-button-response","2","44372","0.0-2.0","622a2b1c561ce3cd95519fd2","622a2b1c561ce3cd95519fd2_20240212","","","",""
"2879","0","html-button-response","3","47755","0.0-3.0","622a2b1c561ce3cd95519fd2","622a2b1c561ce3cd95519fd2_20240212","","
<div>
Great! You will now go on to rate the faces.
<br><br>
</div>
","",""
"7129","0","html-button-response","4","55389","0.0-4.0","622a2b1c561ce3cd95519fd2","622a2b1c561ce3cd95519fd2_20240212","","","7","183"
"5224","0","html-button-response","5","61120","0.0-5.0","622a2b1c561ce3cd95519fd2","622a2b1c561ce3cd95519fd2_20240212","","","8","171"
"5679","0","html-button-response","6","67308","0.0-6.0","622a2b1c561ce3cd95519fd2","622a2b1c561ce3cd95519fd2_20240212","","","8","99"
"4782","0","html-button-response","7","72597","0.0-7.0","622a2b1c561ce3cd95519fd2","622a2b1c561ce3cd95519fd2_20240212","","","7","161"
"3027","0","html-button-response","8","76130","0.0-8.0","622a2b1c561ce3cd95519fd2","622a2b1c561ce3cd95519fd2_20240212","","","8","155"
"3406","0","html-button-response","9","80042","0.0-9.0","622a2b1c561ce3cd95519fd2","622a2b1c561ce3cd95519fd2_20240212","","","7","177"
"2612","0","html-button-response","10","83161","0.0-10.0","622a2b1c561ce3cd95519fd2","622a2b1c561ce3cd95519fd2_20240212","","","9","100"
"3559","0","html-button-response","11","87226","0.0-11.0","622a2b1c561ce3cd95519fd2","622a2b1c561ce3cd95519fd2_20240212","","","3","182"
"2449","0","html-button-response","12","90183","0.0-12.0","622a2b1c561ce3cd95519fd2","622a2b1c561ce3cd95519fd2_20240212","","","4","176"
"2206","0","html-button-response","13","92894","0.0-13.0","622a2b1c561ce3cd95519fd2","622a2b1c561ce3cd95519fd2_20240212","","","2","45"
"2965","0","html-button-response","14","96364","0.0-14.0","622a2b1c561ce3cd95519fd2","622a2b1c561ce3cd95519fd2_20240212","","","5","105"
"1969","0","html-button-response","15","98841","0.0-15.0","622a2b1c561ce3cd95519fd2","622a2b1c561ce3cd95519fd2_20240212","","","7","156"
"1991","0","html-button-response","16","101341","0.0-16.0","622a2b1c561ce3cd95519fd2","622a2b1c561ce3cd95519fd2_20240212","","","6","167"
"2872","0","html-button-response","17","104719","0.0-17.0","622a2b1c561ce3cd95519fd2","622a2b1c561ce3cd95519fd2_20240212","","","8","92"
"3232","0","html-button-response","18","108456","0.0-18.0","622a2b1c561ce3cd95519fd2","622a2b1c561ce3cd95519fd2_20240212","","","7","104"
"2322","0","html-button-response","19","111285","0.0-19.0","622a2b1c561ce3cd95519fd2","622a2b1c561ce3cd95519fd2_20240212","","","4","168"
"1971","0","html-button-response","20","113762","0.0-20.0","622a2b1c561ce3cd95519fd2","622a2b1c561ce3cd95519fd2_20240212","","","5","158"
"2604","0","html-button-response","21","116872","0.0-21.0","622a2b1c561ce3cd95519fd2","622a2b1c561ce3cd95519fd2_20240212","","","6","172"
"2370","0","html-button-response","22","119749","0.0-22.0","622a2b1c561ce3cd95519fd2","622a2b1c561ce3cd95519fd2_20240212","","","7","175"
"2343","0","html-button-response","23","122600","0.0-23.0","622a2b1c561ce3cd95519fd2","622a2b1c561ce3cd95519fd2_20240212","","","3","54"
"2402","0","html-button-response","24","125506","0.0-24.0","622a2b1c561ce3cd95519fd2","622a2b1c561ce3cd95519fd2_20240212","","","5","50"
"2553","0","html-button-response","25","128563","0.0-25.0","622a2b1c561ce3cd95519fd2","622a2b1c561ce3cd95519fd2_20240212","","","2","181"
"2506","0","html-button-response","26","131573","0.0-26.0","622a2b1c561ce3cd95519fd2","622a2b1c561ce3cd95519fd2_20240212","","","2","49"
"1915","0","html-button-response","27","133994","0.0-27.0","622a2b1c561ce3cd95519fd2","622a2b1c561ce3cd95519fd2_20240212","","","6","106"
"2199","0","html-button-response","28","136698","0.0-28.0","622a2b1c561ce3cd95519fd2","622a2b1c561ce3cd95519fd2_20240212","","","6","173"
"2489","0","html-button-response","29","139692","0.0-29.0","622a2b1c561ce3cd95519fd2","622a2b1c561ce3cd95519fd2_20240212","","","4","41"
"2534","0","html-button-response","30","142733","0.0-30.0","622a2b1c561ce3cd95519fd2","622a2b1c561ce3cd95519fd2_20240212","","","5","44"
"2322","0","html-button-response","31","145562","0.0-31.0","622a2b1c561ce3cd95519fd2","622a2b1c561ce3cd95519fd2_20240212","","","8","103"
"2550","0","html-button-response","32","148618","0.0-32.0","622a2b1c561ce3cd95519fd2","622a2b1c561ce3cd95519fd2_20240212","","","8","98"
"2432","0","html-button-response","33","151556","0.0-33.0","622a2b1c561ce3cd95519fd2","622a2b1c561ce3cd95519fd2_20240212","","","8","108"
"2107","0","html-button-response","34","154166","0.0-34.0","622a2b1c561ce3cd95519fd2","622a2b1c561ce3cd95519fd2_20240212","","","5","47"
"2392","0","html-button-response","35","157063","0.0-35.0","622a2b1c561ce3cd95519fd2","622a2b1c561ce3cd95519fd2_20240212","","","5","52"
"1872","0","html-button-response","36","159439","0.0-36.0","622a2b1c561ce3cd95519fd2","622a2b1c561ce3cd95519fd2_20240212","","","6","160"
"2128","0","html-button-response","37","162071","0.0-37.0","622a2b1c561ce3cd95519fd2","622a2b1c561ce3cd95519fd2_20240212","","","8","94"
"2114","0","html-button-response","38","164690","0.0-38.0","622a2b1c561ce3cd95519fd2","622a2b1c561ce3cd95519fd2_20240212","","","6","165"
"2314","0","html-button-response","39","167512","0.0-39.0","622a2b1c561ce3cd95519fd2","622a2b1c561ce3cd95519fd2_20240212","","","6","157"
"2565","0","html-button-response","40","170585","0.0-40.0","622a2b1c561ce3cd95519fd2","622a2b1c561ce3cd95519fd2_20240212","","","5","48"
"1960","0","html-button-response","41","173052","0.0-41.0","622a2b1c561ce3cd95519fd2","622a2b1c561ce3cd95519fd2_20240212","","","6","95"
"2410","0","html-button-response","42","175968","0.0-42.0","622a2b1c561ce3cd95519fd2","622a2b1c561ce3cd95519fd2_20240212","","","4","51"
"2173","0","html-button-response","43","178648","0.0-43.0","622a2b1c561ce3cd95519fd2","622a2b1c561ce3cd95519fd2_20240212","","","5","166"
"4667","0","html-button-response","44","183823","0.0-44.0","622a2b1c561ce3cd95519fd2","622a2b1c561ce3cd95519fd2_20240212","","","6","38"
"2926","0","html-button-response","45","187254","0.0-45.0","622a2b1c561ce3cd95519fd2","622a2b1c561ce3cd95519fd2_20240212","","","3","53"
"2868","0","html-button-response","46","190630","0.0-46.0","622a2b1c561ce3cd95519fd2","622a2b1c561ce3cd95519fd2_20240212","","","6","174"
"2653","0","html-button-response","47","193789","0.0-47.0","622a2b1c561ce3cd95519fd2","622a2b1c561ce3cd95519fd2_20240212","","","4","91"
"2715","0","html-button-response","48","197009","0.0-48.0","622a2b1c561ce3cd95519fd2","622a2b1c561ce3cd95519fd2_20240212","","","7","102"
"2331","0","html-button-response","49","199846","0.0-49.0","622a2b1c561ce3cd95519fd2","622a2b1c561ce3cd95519fd2_20240212","","","2","40"
"3428","0","html-button-response","50","203780","0.0-50.0","622a2b1c561ce3cd95519fd2","622a2b1c561ce3cd95519fd2_20240212","","","7","96"
"2221","0","html-button-response","51","206508","0.0-51.0","622a2b1c561ce3cd95519fd2","622a2b1c561ce3cd95519fd2_20240212","","","3","39"
"5220","0","html-button-response","52","212237","0.0-52.0","622a2b1c561ce3cd95519fd2","622a2b1c561ce3cd95519fd2_20240212","","","8","101"
"2234","0","html-button-response","53","214978","0.0-53.0","622a2b1c561ce3cd95519fd2","622a2b1c561ce3cd95519fd2_20240212","","","6","162"
"1939","0","html-button-response","54","217422","0.0-54.0","622a2b1c561ce3cd95519fd2","622a2b1c561ce3cd95519fd2_20240212","","","6","169"
"2605","0","html-button-response","55","220533","0.0-55.0","622a2b1c561ce3cd95519fd2","622a2b1c561ce3cd95519fd2_20240212","","","5","93"
"2024","0","html-button-response","56","223064","0.0-56.0","622a2b1c561ce3cd95519fd2","622a2b1c561ce3cd95519fd2_20240212","","","6","163"
"2125","0","html-button-response","57","225696","0.0-57.0","622a2b1c561ce3cd95519fd2","622a2b1c561ce3cd95519fd2_20240212","","","4","43"
"1986","0","html-button-response","58","228188","0.0-58.0","622a2b1c561ce3cd95519fd2","622a2b1c561ce3cd95519fd2_20240212","","","6","170"
"2103","0","html-button-response","59","230798","0.0-59.0","622a2b1c561ce3cd95519fd2","622a2b1c561ce3cd95519fd2_20240212","","","6","164"
"2885","0","html-button-response","60","234190","0.0-60.0","622a2b1c561ce3cd95519fd2","622a2b1c561ce3cd95519fd2_20240212","","","4","46"
"2799","0","html-button-response","61","237496","0.0-61.0","622a2b1c561ce3cd95519fd2","622a2b1c561ce3cd95519fd2_20240212","","","8","107"
"2347","0","html-button-response","62","240348","0.0-62.0","622a2b1c561ce3cd95519fd2","622a2b1c561ce3cd95519fd2_20240212","","","7","159"
"2007","0","html-button-response","63","242860","0.0-63.0","622a2b1c561ce3cd95519fd2","622a2b1c561ce3cd95519fd2_20240212","","","8","97"
"2456","0","html-button-response","64","245820","0.0-64.0","622a2b1c561ce3cd95519fd2","622a2b1c561ce3cd95519fd2_20240212","","","6","37"
"2356","0","html-button-response","65","248678","0.0-65.0","622a2b1c561ce3cd95519fd2","622a2b1c561ce3cd95519fd2_20240212","","","4","42"
"17859","0","html-button-response","66","267044","0.0-66.0","622a2b1c561ce3cd95519fd2","622a2b1c561ce3cd95519fd2_20240212","","","",""
"3312","0","html-button-response","67","270863","0.0-67.0","622a2b1c561ce3cd95519fd2","622a2b1c561ce3cd95519fd2_20240212","","","4","116"
"2621","0","html-button-response","68","273988","0.0-68.0","622a2b1c561ce3cd95519fd2","622a2b1c561ce3cd95519fd2_20240212","","","5","56"
"4817","0","html-button-response","69","279309","0.0-69.0","622a2b1c561ce3cd95519fd2","622a2b1c561ce3cd95519fd2_20240212","","","4","18"
"2197","0","html-button-response","70","282012","0.0-70.0","622a2b1c561ce3cd95519fd2","622a2b1c561ce3cd95519fd2_20240212","","","3","66"
"2566","0","html-button-response","71","285083","0.0-71.0","622a2b1c561ce3cd95519fd2","622a2b1c561ce3cd95519fd2_20240212","","","3","65"
"2385","0","html-button-response","72","287976","0.0-72.0","622a2b1c561ce3cd95519fd2","622a2b1c561ce3cd95519fd2_20240212","","","7","60"
"2518","0","html-button-response","73","291001","0.0-73.0","622a2b1c561ce3cd95519fd2","622a2b1c561ce3cd95519fd2_20240212","","","4","72"
"2267","0","html-button-response","74","293774","0.0-74.0","622a2b1c561ce3cd95519fd2","622a2b1c561ce3cd95519fd2_20240212","","","2","63"
"2041","0","html-button-response","75","296321","0.0-75.0","622a2b1c561ce3cd95519fd2","622a2b1c561ce3cd95519fd2_20240212","","","4","61"
"2143","0","html-button-response","76","298968","0.0-76.0","622a2b1c561ce3cd95519fd2","622a2b1c561ce3cd95519fd2_20240212","","","3","55"
"2935","0","html-button-response","77","302409","0.0-77.0","622a2b1c561ce3cd95519fd2","622a2b1c561ce3cd95519fd2_20240212","","","2","114"
"3974","0","html-button-response","78","306890","0.0-78.0","622a2b1c561ce3cd95519fd2","622a2b1c561ce3cd95519fd2_20240212","","","5","6"
"3747","0","html-button-response","79","311145","0.0-79.0","622a2b1c561ce3cd95519fd2","622a2b1c561ce3cd95519fd2_20240212","","","5","59"
"5112","0","html-button-response","80","316762","0.0-80.0","622a2b1c561ce3cd95519fd2","622a2b1c561ce3cd95519fd2_20240212","","","5","62"
"3418","0","html-button-response","81","320686","0.0-81.0","622a2b1c561ce3cd95519fd2","622a2b1c561ce3cd95519fd2_20240212","","","4","5"
"4329","0","html-button-response","82","325520","0.0-82.0","622a2b1c561ce3cd95519fd2","622a2b1c561ce3cd95519fd2_20240212","","","3","7"
"2730","0","html-button-response","83","328757","0.0-83.0","622a2b1c561ce3cd95519fd2","622a2b1c561ce3cd95519fd2_20240212","","","3","118"
"4556","0","html-button-response","84","333818","0.0-84.0","622a2b1c561ce3cd95519fd2","622a2b1c561ce3cd95519fd2_20240212","","","3","126"
"3380","0","html-button-response","85","337704","0.0-85.0","622a2b1c561ce3cd95519fd2","622a2b1c561ce3cd95519fd2_20240212","","","4","3"
"2266","0","html-button-response","86","340476","0.0-86.0","622a2b1c561ce3cd95519fd2","622a2b1c561ce3cd95519fd2_20240212","","","3","17"
"2347","0","html-button-response","87","343328","0.0-87.0","622a2b1c561ce3cd95519fd2","622a2b1c561ce3cd95519fd2_20240212","","","2","12"
"3858","0","html-button-response","88","347692","0.0-88.0","622a2b1c561ce3cd95519fd2","622a2b1c561ce3cd95519fd2_20240212","","","4","122"
"2117","0","html-button-response","89","350315","0.0-89.0","622a2b1c561ce3cd95519fd2","622a2b1c561ce3cd95519fd2_20240212","","","3","14"
"2270","0","html-button-response","90","353090","0.0-90.0","622a2b1c561ce3cd95519fd2","622a2b1c561ce3cd95519fd2_20240212","","","5","64"
"2072","0","html-button-response","91","355668","0.0-91.0","622a2b1c561ce3cd95519fd2","622a2b1c561ce3cd95519fd2_20240212","","","5","119"
"2149","0","html-button-response","92","358324","0.0-92.0","622a2b1c561ce3cd95519fd2","622a2b1c561ce3cd95519fd2_20240212","","","6","109"
"2285","0","html-button-response","93","361114","0.0-93.0","622a2b1c561ce3cd95519fd2","622a2b1c561ce3cd95519fd2_20240212","","","7","68"
"2359","0","html-button-response","94","363981","0.0-94.0","622a2b1c561ce3cd95519fd2","622a2b1c561ce3cd95519fd2_20240212","","","6","121"
"1962","0","html-button-response","95","366448","0.0-95.0","622a2b1c561ce3cd95519fd2","622a2b1c561ce3cd95519fd2_20240212","","","4","123"
"2099","0","html-button-response","96","369052","0.0-96.0","622a2b1c561ce3cd95519fd2","622a2b1c561ce3cd95519fd2_20240212","","","4","124"
"2336","0","html-button-response","97","371895","0.0-97.0","622a2b1c561ce3cd95519fd2","622a2b1c561ce3cd95519fd2_20240212","","","3","111"
"2392","0","html-button-response","98","374792","0.0-98.0","622a2b1c561ce3cd95519fd2","622a2b1c561ce3cd95519fd2_20240212","","","2","1"
"2121","0","html-button-response","99","377418","0.0-99.0","622a2b1c561ce3cd95519fd2","622a2b1c561ce3cd95519fd2_20240212","","","4","58"
"1979","0","html-button-response","100","379903","0.0-100.0","622a2b1c561ce3cd95519fd2","622a2b1c561ce3cd95519fd2_20240212","","","5","67"
"3329","0","html-button-response","101","383741","0.0-101.0","622a2b1c561ce3cd95519fd2","622a2b1c561ce3cd95519fd2_20240212","","","3","13"
"2151","0","html-button-response","102","386397","0.0-102.0","622a2b1c561ce3cd95519fd2","622a2b1c561ce3cd95519fd2_20240212","","","2","9"
"2143","0","html-button-response","103","389046","0.0-103.0","622a2b1c561ce3cd95519fd2","622a2b1c561ce3cd95519fd2_20240212","","","4","125"
"2551","0","html-button-response","104","392102","0.0-104.0","622a2b1c561ce3cd95519fd2","622a2b1c561ce3cd95519fd2_20240212","","","5","128"
"3589","0","html-button-response","105","396194","0.0-105.0","622a2b1c561ce3cd95519fd2","622a2b1c561ce3cd95519fd2_20240212","","","4","4"
"2023","0","html-button-response","106","398722","0.0-106.0","622a2b1c561ce3cd95519fd2","622a2b1c561ce3cd95519fd2_20240212","","","5","113"
"2489","0","html-button-response","107","401716","0.0-107.0","622a2b1c561ce3cd95519fd2","622a2b1c561ce3cd95519fd2_20240212","","","6","70"
"2278","0","html-button-response","108","404498","0.0-108.0","622a2b1c561ce3cd95519fd2","622a2b1c561ce3cd95519fd2_20240212","","","5","117"
"2519","0","html-button-response","109","407522","0.0-109.0","622a2b1c561ce3cd95519fd2","622a2b1c561ce3cd95519fd2_20240212","","","4","8"
"3003","0","html-button-response","110","411031","0.0-110.0","622a2b1c561ce3cd95519fd2","622a2b1c561ce3cd95519fd2_20240212","","","5","11"
"1995","0","html-button-response","111","413532","0.0-111.0","622a2b1c561ce3cd95519fd2","622a2b1c561ce3cd95519fd2_20240212","","","4","120"
"2274","0","html-button-response","112","416312","0.0-112.0","622a2b1c561ce3cd95519fd2","622a2b1c561ce3cd95519fd2_20240212","","","4","2"
"2997","0","html-button-response","113","419817","0.0-113.0","622a2b1c561ce3cd95519fd2","622a2b1c561ce3cd95519fd2_20240212","","","5","57"
"2483","0","html-button-response","114","422808","0.0-114.0","622a2b1c561ce3cd95519fd2","622a2b1c561ce3cd95519fd2_20240212","","","6","115"
"2650","0","html-button-response","115","425964","0.0-115.0","622a2b1c561ce3cd95519fd2","622a2b1c561ce3cd95519fd2_20240212","","","6","127"
"2500","0","html-button-response","116","428968","0.0-116.0","622a2b1c561ce3cd95519fd2","622a2b1c561ce3cd95519fd2_20240212","","","5","129"
"2054","0","html-button-response","117","431527","0.0-117.0","622a2b1c561ce3cd95519fd2","622a2b1c561ce3cd95519fd2_20240212","","","4","10"
"3131","0","html-button-response","118","435165","0.0-118.0","622a2b1c561ce3cd95519fd2","622a2b1c561ce3cd95519fd2_20240212","","","6","71"
"2117","0","html-button-response","119","437790","0.0-119.0","622a2b1c561ce3cd95519fd2","622a2b1c561ce3cd95519fd2_20240212","","","5","69"
"3583","0","html-button-response","120","441878","0.0-120.0","622a2b1c561ce3cd95519fd2","622a2b1c561ce3cd95519fd2_20240212","","","5","15"
"3012","0","html-button-response","121","445396","0.0-121.0","622a2b1c561ce3cd95519fd2","622a2b1c561ce3cd95519fd2_20240212","","","4","131"
"1970","0","html-button-response","122","447868","0.0-122.0","622a2b1c561ce3cd95519fd2","622a2b1c561ce3cd95519fd2_20240212","","","4","110"
"2076","0","html-button-response","123","450448","0.0-123.0","622a2b1c561ce3cd95519fd2","622a2b1c561ce3cd95519fd2_20240212","","","4","130"
"2294","0","html-button-response","124","453244","0.0-124.0","622a2b1c561ce3cd95519fd2","622a2b1c561ce3cd95519fd2_20240212","","","3","112"
"2449","0","html-button-response","125","456197","0.0-125.0","622a2b1c561ce3cd95519fd2","622a2b1c561ce3cd95519fd2_20240212","","","3","16"
"1282","0","html-button-response","126","457982","0.0-126.0","622a2b1c561ce3cd95519fd2","622a2b1c561ce3cd95519fd2_20240212","","","",""
"2780","0","html-button-response","127","461268","0.0-127.0","622a2b1c561ce3cd95519fd2","622a2b1c561ce3cd95519fd2_20240212","","","1","24"
"6680","0","html-button-response","128","468454","0.0-128.0","622a2b1c561ce3cd95519fd2","622a2b1c561ce3cd95519fd2_20240212","","","9","154"
"2348","0","html-button-response","129","471305","0.0-129.0","622a2b1c561ce3cd95519fd2","622a2b1c561ce3cd95519fd2_20240212","","","9","82"
"2708","0","html-button-response","130","474518","0.0-130.0","622a2b1c561ce3cd95519fd2","622a2b1c561ce3cd95519fd2_20240212","","","9","87"
"2281","0","html-button-response","131","477305","0.0-131.0","622a2b1c561ce3cd95519fd2","622a2b1c561ce3cd95519fd2_20240212","","","6","33"
"2254","0","html-button-response","132","480065","0.0-132.0","622a2b1c561ce3cd95519fd2","622a2b1c561ce3cd95519fd2_20240212","","","8","80"
"3498","0","html-button-response","133","484067","0.0-133.0","622a2b1c561ce3cd95519fd2","622a2b1c561ce3cd95519fd2_20240212","","","8","140"
"2277","0","html-button-response","134","486850","0.0-134.0","622a2b1c561ce3cd95519fd2","622a2b1c561ce3cd95519fd2_20240212","","","8","133"
"1971","0","html-button-response","135","489326","0.0-135.0","622a2b1c561ce3cd95519fd2","622a2b1c561ce3cd95519fd2_20240212","","","7","23"
"2481","0","html-button-response","136","492311","0.0-136.0","622a2b1c561ce3cd95519fd2","622a2b1c561ce3cd95519fd2_20240212","","","8","153"
"2292","0","html-button-response","137","495107","0.0-137.0","622a2b1c561ce3cd95519fd2","622a2b1c561ce3cd95519fd2_20240212","","","9","73"
"1989","0","html-button-response","138","497600","0.0-138.0","622a2b1c561ce3cd95519fd2","622a2b1c561ce3cd95519fd2_20240212","","","8","150"
"2205","0","html-button-response","139","500310","0.0-139.0","622a2b1c561ce3cd95519fd2","622a2b1c561ce3cd95519fd2_20240212","","","8","149"
"2526","0","html-button-response","140","503343","0.0-140.0","622a2b1c561ce3cd95519fd2","622a2b1c561ce3cd95519fd2_20240212","","","9","84"
"2529","0","html-button-response","141","506376","0.0-141.0","622a2b1c561ce3cd95519fd2","622a2b1c561ce3cd95519fd2_20240212","","","7","178"
"2298","0","html-button-response","142","509180","0.0-142.0","622a2b1c561ce3cd95519fd2","622a2b1c561ce3cd95519fd2_20240212","","","8","147"
"1972","0","html-button-response","143","511659","0.0-143.0","622a2b1c561ce3cd95519fd2","622a2b1c561ce3cd95519fd2_20240212","","","7","146"
"2932","0","html-button-response","144","515097","0.0-144.0","622a2b1c561ce3cd95519fd2","622a2b1c561ce3cd95519fd2_20240212","","","6","180"
"2346","0","html-button-response","145","517948","0.0-145.0","622a2b1c561ce3cd95519fd2","622a2b1c561ce3cd95519fd2_20240212","","","9","77"
"2199","0","html-button-response","146","520652","0.0-146.0","622a2b1c561ce3cd95519fd2","622a2b1c561ce3cd95519fd2_20240212","","","8","151"
"2423","0","html-button-response","147","523580","0.0-147.0","622a2b1c561ce3cd95519fd2","622a2b1c561ce3cd95519fd2_20240212","","","8","85"
"2153","0","html-button-response","148","526239","0.0-148.0","622a2b1c561ce3cd95519fd2","622a2b1c561ce3cd95519fd2_20240212","","","8","74"
"1915","0","html-button-response","149","528661","0.0-149.0","622a2b1c561ce3cd95519fd2","622a2b1c561ce3cd95519fd2_20240212","","","7","145"
"2259","0","html-button-response","150","531426","0.0-150.0","622a2b1c561ce3cd95519fd2","622a2b1c561ce3cd95519fd2_20240212","","","5","26"
"2199","0","html-button-response","151","534130","0.0-151.0","622a2b1c561ce3cd95519fd2","622a2b1c561ce3cd95519fd2_20240212","","","4","22"
"2245","0","html-button-response","152","536881","0.0-152.0","622a2b1c561ce3cd95519fd2","622a2b1c561ce3cd95519fd2_20240212","","","7","132"
"2002","0","html-button-response","153","539389","0.0-153.0","622a2b1c561ce3cd95519fd2","622a2b1c561ce3cd95519fd2_20240212","","","7","139"
"2007","0","html-button-response","154","541902","0.0-154.0","622a2b1c561ce3cd95519fd2","622a2b1c561ce3cd95519fd2_20240212","","","6","142"
"4063","0","html-button-response","155","546470","0.0-155.0","622a2b1c561ce3cd95519fd2","622a2b1c561ce3cd95519fd2_20240212","","","3","25"
"2397","0","html-button-response","156","549377","0.0-156.0","622a2b1c561ce3cd95519fd2","622a2b1c561ce3cd95519fd2_20240212","","","3","35"
"2316","0","html-button-response","157","552198","0.0-157.0","622a2b1c561ce3cd95519fd2","622a2b1c561ce3cd95519fd2_20240212","","","8","79"
"2449","0","html-button-response","158","555152","0.0-158.0","622a2b1c561ce3cd95519fd2","622a2b1c561ce3cd95519fd2_20240212","","","9","88"
"2527","0","html-button-response","159","558185","0.0-159.0","622a2b1c561ce3cd95519fd2","622a2b1c561ce3cd95519fd2_20240212","","","9","75"
"2518","0","html-button-response","160","561207","0.0-160.0","622a2b1c561ce3cd95519fd2","622a2b1c561ce3cd95519fd2_20240212","","","9","86"
"2521","0","html-button-response","161","564233","0.0-161.0","622a2b1c561ce3cd95519fd2","622a2b1c561ce3cd95519fd2_20240212","","","8","78"
"2370","0","html-button-response","162","567109","0.0-162.0","622a2b1c561ce3cd95519fd2","622a2b1c561ce3cd95519fd2_20240212","","","4","29"
"2378","0","html-button-response","163","569992","0.0-163.0","622a2b1c561ce3cd95519fd2","622a2b1c561ce3cd95519fd2_20240212","","","2","34"
"2309","0","html-button-response","164","572807","0.0-164.0","622a2b1c561ce3cd95519fd2","622a2b1c561ce3cd95519fd2_20240212","","","7","143"
"2282","0","html-button-response","165","575594","0.0-165.0","622a2b1c561ce3cd95519fd2","622a2b1c561ce3cd95519fd2_20240212","","","7","135"
"2230","0","html-button-response","166","578330","0.0-166.0","622a2b1c561ce3cd95519fd2","622a2b1c561ce3cd95519fd2_20240212","","","8","144"
"2309","0","html-button-response","167","581144","0.0-167.0","622a2b1c561ce3cd95519fd2","622a2b1c561ce3cd95519fd2_20240212","","","8","76"
"2393","0","html-button-response","168","584041","0.0-168.0","622a2b1c561ce3cd95519fd2","622a2b1c561ce3cd95519fd2_20240212","","","8","152"
"2287","0","html-button-response","169","586832","0.0-169.0","622a2b1c561ce3cd95519fd2","622a2b1c561ce3cd95519fd2_20240212","","","4","32"
"2301","0","html-button-response","170","589641","0.0-170.0","622a2b1c561ce3cd95519fd2","622a2b1c561ce3cd95519fd2_20240212","","","4","21"
"2373","0","html-button-response","171","592521","0.0-171.0","622a2b1c561ce3cd95519fd2","622a2b1c561ce3cd95519fd2_20240212","","","7","134"
"2242","0","html-button-response","172","595268","0.0-172.0","622a2b1c561ce3cd95519fd2","622a2b1c561ce3cd95519fd2_20240212","","","8","141"
"2066","0","html-button-response","173","597839","0.0-173.0","622a2b1c561ce3cd95519fd2","622a2b1c561ce3cd95519fd2_20240212","","","9","89"
"2356","0","html-button-response","174","600700","0.0-174.0","622a2b1c561ce3cd95519fd2","622a2b1c561ce3cd95519fd2_20240212","","","8","148"
"2158","0","html-button-response","175","603364","0.0-175.0","622a2b1c561ce3cd95519fd2","622a2b1c561ce3cd95519fd2_20240212","","","4","36"
"2300","0","html-button-response","176","606171","0.0-176.0","622a2b1c561ce3cd95519fd2","622a2b1c561ce3cd95519fd2_20240212","","","2","31"
"2335","0","html-button-response","177","609012","0.0-177.0","622a2b1c561ce3cd95519fd2","622a2b1c561ce3cd95519fd2_20240212","","","2","27"
"2122","0","html-button-response","178","611641","0.0-178.0","622a2b1c561ce3cd95519fd2","622a2b1c561ce3cd95519fd2_20240212","","","8","81"
"2069","0","html-button-response","179","614215","0.0-179.0","622a2b1c561ce3cd95519fd2","622a2b1c561ce3cd95519fd2_20240212","","","4","19"
"2255","0","html-button-response","180","616975","0.0-180.0","622a2b1c561ce3cd95519fd2","622a2b1c561ce3cd95519fd2_20240212","","","6","30"
"2041","0","html-button-response","181","619522","0.0-181.0","622a2b1c561ce3cd95519fd2","622a2b1c561ce3cd95519fd2_20240212","","","5","28"
"2573","0","html-button-response","182","622600","0.0-182.0","622a2b1c561ce3cd95519fd2","622a2b1c561ce3cd95519fd2_20240212","","","8","90"
"2002","0","html-button-response","183","625108","0.0-183.0","622a2b1c561ce3cd95519fd2","622a2b1c561ce3cd95519fd2_20240212","","","8","138"
"2050","0","html-button-response","184","627664","0.0-184.0","622a2b1c561ce3cd95519fd2","622a2b1c561ce3cd95519fd2_20240212","","","8","136"
"2947","0","html-button-response","185","631117","0.0-185.0","622a2b1c561ce3cd95519fd2","622a2b1c561ce3cd95519fd2_20240212","","","3","20"
"2655","0","html-button-response","186","634276","0.0-186.0","622a2b1c561ce3cd95519fd2","622a2b1c561ce3cd95519fd2_20240212","","","9","83"
"2528","0","html-button-response","187","637307","0.0-187.0","622a2b1c561ce3cd95519fd2","622a2b1c561ce3cd95519fd2_20240212","","","7","179"
"2441","0","html-button-response","188","640252","0.0-188.0","622a2b1c561ce3cd95519fd2","622a2b1c561ce3cd95519fd2_20240212","","","8","137"
"5282","0","html-button-response","189","646038","0.0-189.0","622a2b1c561ce3cd95519fd2","622a2b1c561ce3cd95519fd2_20240212","","Thank you. You have reached the end. 
                       <br>Click the button below to reveal your compensation.
                        <br><br>","",""
