"rt","response","trial_type","trial_index","time_elapsed","internal_node_id","part_ID","ID_DATE","screen_id","stimulus","rating","img_id"
"4870","0","html-button-response","0","4875","0.0-0.0","5f432ba5c945de1a9be362a4","5f432ba5c945de1a9be362a4_20240212","","","",""
"4854","[object Object]","survey-html-form","1","10238","0.0-1.0","5f432ba5c945de1a9be362a4","5f432ba5c945de1a9be362a4_20240212","prolific_id_page","","",""
"8606","0","html-button-response","2","18849","0.0-2.0","5f432ba5c945de1a9be362a4","5f432ba5c945de1a9be362a4_20240212","","","",""
"1093","0","html-button-response","3","20452","0.0-3.0","5f432ba5c945de1a9be362a4","5f432ba5c945de1a9be362a4_20240212","","
<div>
Great! You will now go on to rate the faces.
<br><br>
</div>
","",""
"3857","0","html-button-response","4","24828","0.0-4.0","5f432ba5c945de1a9be362a4","5f432ba5c945de1a9be362a4_20240212","","","6","130"
"2936","0","html-button-response","5","28269","0.0-5.0","5f432ba5c945de1a9be362a4","5f432ba5c945de1a9be362a4_20240212","","","6","62"
"2674","0","html-button-response","6","31454","0.0-6.0","5f432ba5c945de1a9be362a4","5f432ba5c945de1a9be362a4_20240212","","","6","125"
"2194","0","html-button-response","7","34162","0.0-7.0","5f432ba5c945de1a9be362a4","5f432ba5c945de1a9be362a4_20240212","","","6","110"
"2119","0","html-button-response","8","36797","0.0-8.0","5f432ba5c945de1a9be362a4","5f432ba5c945de1a9be362a4_20240212","","","4","71"
"2484","0","html-button-response","9","39794","0.0-9.0","5f432ba5c945de1a9be362a4","5f432ba5c945de1a9be362a4_20240212","","","5","57"
"2355","0","html-button-response","10","42662","0.0-10.0","5f432ba5c945de1a9be362a4","5f432ba5c945de1a9be362a4_20240212","","","6","131"
"2159","0","html-button-response","11","45324","0.0-11.0","5f432ba5c945de1a9be362a4","5f432ba5c945de1a9be362a4_20240212","","","5","18"
"1995","0","html-button-response","12","47836","0.0-12.0","5f432ba5c945de1a9be362a4","5f432ba5c945de1a9be362a4_20240212","","","4","118"
"7031","0","html-button-response","13","55373","0.0-13.0","5f432ba5c945de1a9be362a4","5f432ba5c945de1a9be362a4_20240212","","","7","2"
"2617","0","html-button-response","14","58504","0.0-14.0","5f432ba5c945de1a9be362a4","5f432ba5c945de1a9be362a4_20240212","","","6","15"
"4237","0","html-button-response","15","63251","0.0-15.0","5f432ba5c945de1a9be362a4","5f432ba5c945de1a9be362a4_20240212","","","3","12"
"1958","0","html-button-response","16","65723","0.0-16.0","5f432ba5c945de1a9be362a4","5f432ba5c945de1a9be362a4_20240212","","","5","114"
"2830","0","html-button-response","17","69065","0.0-17.0","5f432ba5c945de1a9be362a4","5f432ba5c945de1a9be362a4_20240212","","","8","128"
"3075","0","html-button-response","18","72649","0.0-18.0","5f432ba5c945de1a9be362a4","5f432ba5c945de1a9be362a4_20240212","","","3","17"
"3168","0","html-button-response","19","76322","0.0-19.0","5f432ba5c945de1a9be362a4","5f432ba5c945de1a9be362a4_20240212","","","8","59"
"3406","0","html-button-response","20","80242","0.0-20.0","5f432ba5c945de1a9be362a4","5f432ba5c945de1a9be362a4_20240212","","","4","10"
"4132","0","html-button-response","21","84883","0.0-21.0","5f432ba5c945de1a9be362a4","5f432ba5c945de1a9be362a4_20240212","","","2","13"
"3589","0","html-button-response","22","88984","0.0-22.0","5f432ba5c945de1a9be362a4","5f432ba5c945de1a9be362a4_20240212","","","8","115"
"1943","0","html-button-response","23","91434","0.0-23.0","5f432ba5c945de1a9be362a4","5f432ba5c945de1a9be362a4_20240212","","","8","113"
"4048","0","html-button-response","24","95988","0.0-24.0","5f432ba5c945de1a9be362a4","5f432ba5c945de1a9be362a4_20240212","","","4","60"
"3071","0","html-button-response","25","99574","0.0-25.0","5f432ba5c945de1a9be362a4","5f432ba5c945de1a9be362a4_20240212","","","9","124"
"2366","0","html-button-response","26","102453","0.0-26.0","5f432ba5c945de1a9be362a4","5f432ba5c945de1a9be362a4_20240212","","","9","66"
"2175","0","html-button-response","27","105138","0.0-27.0","5f432ba5c945de1a9be362a4","5f432ba5c945de1a9be362a4_20240212","","","2","11"
"2234","0","html-button-response","28","107874","0.0-28.0","5f432ba5c945de1a9be362a4","5f432ba5c945de1a9be362a4_20240212","","","3","63"
"2993","0","html-button-response","29","111375","0.0-29.0","5f432ba5c945de1a9be362a4","5f432ba5c945de1a9be362a4_20240212","","","2","14"
"3048","0","html-button-response","30","114942","0.0-30.0","5f432ba5c945de1a9be362a4","5f432ba5c945de1a9be362a4_20240212","","","9","109"
"2517","0","html-button-response","31","117972","0.0-31.0","5f432ba5c945de1a9be362a4","5f432ba5c945de1a9be362a4_20240212","","","9","61"
"2114","0","html-button-response","32","120592","0.0-32.0","5f432ba5c945de1a9be362a4","5f432ba5c945de1a9be362a4_20240212","","","9","111"
"2290","0","html-button-response","33","123396","0.0-33.0","5f432ba5c945de1a9be362a4","5f432ba5c945de1a9be362a4_20240212","","","5","4"
"3083","0","html-button-response","34","126985","0.0-34.0","5f432ba5c945de1a9be362a4","5f432ba5c945de1a9be362a4_20240212","","","8","72"
"2223","0","html-button-response","35","129721","0.0-35.0","5f432ba5c945de1a9be362a4","5f432ba5c945de1a9be362a4_20240212","","","9","68"
"2972","0","html-button-response","36","133200","0.0-36.0","5f432ba5c945de1a9be362a4","5f432ba5c945de1a9be362a4_20240212","","","7","117"
"2542","0","html-button-response","37","136260","0.0-37.0","5f432ba5c945de1a9be362a4","5f432ba5c945de1a9be362a4_20240212","","","4","6"
"2211","0","html-button-response","38","138978","0.0-38.0","5f432ba5c945de1a9be362a4","5f432ba5c945de1a9be362a4_20240212","","","8","65"
"2246","0","html-button-response","39","141729","0.0-39.0","5f432ba5c945de1a9be362a4","5f432ba5c945de1a9be362a4_20240212","","","6","112"
"3381","0","html-button-response","40","145620","0.0-40.0","5f432ba5c945de1a9be362a4","5f432ba5c945de1a9be362a4_20240212","","","7","64"
"2457","0","html-button-response","41","148592","0.0-41.0","5f432ba5c945de1a9be362a4","5f432ba5c945de1a9be362a4_20240212","","","3","9"
"2838","0","html-button-response","42","151942","0.0-42.0","5f432ba5c945de1a9be362a4","5f432ba5c945de1a9be362a4_20240212","","","7","7"
"2135","0","html-button-response","43","154590","0.0-43.0","5f432ba5c945de1a9be362a4","5f432ba5c945de1a9be362a4_20240212","","","9","119"
"2005","0","html-button-response","44","157105","0.0-44.0","5f432ba5c945de1a9be362a4","5f432ba5c945de1a9be362a4_20240212","","","9","121"
"2334","0","html-button-response","45","159944","0.0-45.0","5f432ba5c945de1a9be362a4","5f432ba5c945de1a9be362a4_20240212","","","5","3"
"2547","0","html-button-response","46","163001","0.0-46.0","5f432ba5c945de1a9be362a4","5f432ba5c945de1a9be362a4_20240212","","","7","126"
"2827","0","html-button-response","47","166345","0.0-47.0","5f432ba5c945de1a9be362a4","5f432ba5c945de1a9be362a4_20240212","","","8","56"
"2085","0","html-button-response","48","168939","0.0-48.0","5f432ba5c945de1a9be362a4","5f432ba5c945de1a9be362a4_20240212","","","8","69"
"3219","0","html-button-response","49","172672","0.0-49.0","5f432ba5c945de1a9be362a4","5f432ba5c945de1a9be362a4_20240212","","","5","16"
"4839","0","html-button-response","50","178017","0.0-50.0","5f432ba5c945de1a9be362a4","5f432ba5c945de1a9be362a4_20240212","","","8","67"
"3915","0","html-button-response","51","182452","0.0-51.0","5f432ba5c945de1a9be362a4","5f432ba5c945de1a9be362a4_20240212","","","5","5"
"4812","0","html-button-response","52","187772","0.0-52.0","5f432ba5c945de1a9be362a4","5f432ba5c945de1a9be362a4_20240212","","","5","120"
"2824","0","html-button-response","53","191106","0.0-53.0","5f432ba5c945de1a9be362a4","5f432ba5c945de1a9be362a4_20240212","","","7","70"
"3474","0","html-button-response","54","195086","0.0-54.0","5f432ba5c945de1a9be362a4","5f432ba5c945de1a9be362a4_20240212","","","8","55"
"4660","0","html-button-response","55","200253","0.0-55.0","5f432ba5c945de1a9be362a4","5f432ba5c945de1a9be362a4_20240212","","","8","127"
"3166","0","html-button-response","56","203929","0.0-56.0","5f432ba5c945de1a9be362a4","5f432ba5c945de1a9be362a4_20240212","","","9","58"
"2270","0","html-button-response","57","206708","0.0-57.0","5f432ba5c945de1a9be362a4","5f432ba5c945de1a9be362a4_20240212","","","2","1"
"2280","0","html-button-response","58","209493","0.0-58.0","5f432ba5c945de1a9be362a4","5f432ba5c945de1a9be362a4_20240212","","","8","123"
"4346","0","html-button-response","59","214345","0.0-59.0","5f432ba5c945de1a9be362a4","5f432ba5c945de1a9be362a4_20240212","","","8","122"
"2232","0","html-button-response","60","217098","0.0-60.0","5f432ba5c945de1a9be362a4","5f432ba5c945de1a9be362a4_20240212","","","8","116"
"2232","0","html-button-response","61","219839","0.0-61.0","5f432ba5c945de1a9be362a4","5f432ba5c945de1a9be362a4_20240212","","","9","129"
"2347","0","html-button-response","62","222703","0.0-62.0","5f432ba5c945de1a9be362a4","5f432ba5c945de1a9be362a4_20240212","","","6","8"
"2065","0","html-button-response","63","225279","0.0-63.0","5f432ba5c945de1a9be362a4","5f432ba5c945de1a9be362a4_20240212","","","",""
"3130","0","html-button-response","64","228914","0.0-64.0","5f432ba5c945de1a9be362a4","5f432ba5c945de1a9be362a4_20240212","","","2","43"
"2895","0","html-button-response","65","232315","0.0-65.0","5f432ba5c945de1a9be362a4","5f432ba5c945de1a9be362a4_20240212","","","6","103"
"2400","0","html-button-response","66","235223","0.0-66.0","5f432ba5c945de1a9be362a4","5f432ba5c945de1a9be362a4_20240212","","","3","50"
"2752","0","html-button-response","67","238488","0.0-67.0","5f432ba5c945de1a9be362a4","5f432ba5c945de1a9be362a4_20240212","","","7","181"
"2485","0","html-button-response","68","241485","0.0-68.0","5f432ba5c945de1a9be362a4","5f432ba5c945de1a9be362a4_20240212","","","8","173"
"3821","0","html-button-response","69","245823","0.0-69.0","5f432ba5c945de1a9be362a4","5f432ba5c945de1a9be362a4_20240212","","","5","91"
"4636","0","html-button-response","70","250965","0.0-70.0","5f432ba5c945de1a9be362a4","5f432ba5c945de1a9be362a4_20240212","","","6","160"
"3170","0","html-button-response","71","254642","0.0-71.0","5f432ba5c945de1a9be362a4","5f432ba5c945de1a9be362a4_20240212","","","6","101"
"2279","0","html-button-response","72","257438","0.0-72.0","5f432ba5c945de1a9be362a4","5f432ba5c945de1a9be362a4_20240212","","","7","100"
"3466","0","html-button-response","73","261420","0.0-73.0","5f432ba5c945de1a9be362a4","5f432ba5c945de1a9be362a4_20240212","","","4","44"
"2738","0","html-button-response","74","264675","0.0-74.0","5f432ba5c945de1a9be362a4","5f432ba5c945de1a9be362a4_20240212","","","5","176"
"2807","0","html-button-response","75","267986","0.0-75.0","5f432ba5c945de1a9be362a4","5f432ba5c945de1a9be362a4_20240212","","","6","172"
"2768","0","html-button-response","76","271262","0.0-76.0","5f432ba5c945de1a9be362a4","5f432ba5c945de1a9be362a4_20240212","","","9","107"
"2086","0","html-button-response","77","273859","0.0-77.0","5f432ba5c945de1a9be362a4","5f432ba5c945de1a9be362a4_20240212","","","9","102"
"2359","0","html-button-response","78","276726","0.0-78.0","5f432ba5c945de1a9be362a4","5f432ba5c945de1a9be362a4_20240212","","","8","171"
"2215","0","html-button-response","79","279446","0.0-79.0","5f432ba5c945de1a9be362a4","5f432ba5c945de1a9be362a4_20240212","","","8","96"
"2593","0","html-button-response","80","282559","0.0-80.0","5f432ba5c945de1a9be362a4","5f432ba5c945de1a9be362a4_20240212","","","4","37"
"2579","0","html-button-response","81","285645","0.0-81.0","5f432ba5c945de1a9be362a4","5f432ba5c945de1a9be362a4_20240212","","","5","155"
"2843","0","html-button-response","82","289005","0.0-82.0","5f432ba5c945de1a9be362a4","5f432ba5c945de1a9be362a4_20240212","","","7","108"
"2356","0","html-button-response","83","291876","0.0-83.0","5f432ba5c945de1a9be362a4","5f432ba5c945de1a9be362a4_20240212","","","8","104"
"2308","0","html-button-response","84","294692","0.0-84.0","5f432ba5c945de1a9be362a4","5f432ba5c945de1a9be362a4_20240212","","","8","156"
"2689","0","html-button-response","85","297888","0.0-85.0","5f432ba5c945de1a9be362a4","5f432ba5c945de1a9be362a4_20240212","","","8","161"
"1842","0","html-button-response","86","300233","0.0-86.0","5f432ba5c945de1a9be362a4","5f432ba5c945de1a9be362a4_20240212","","","8","177"
"3217","0","html-button-response","87","303969","0.0-87.0","5f432ba5c945de1a9be362a4","5f432ba5c945de1a9be362a4_20240212","","","9","92"
"2600","0","html-button-response","88","307088","0.0-88.0","5f432ba5c945de1a9be362a4","5f432ba5c945de1a9be362a4_20240212","","","6","162"
"2338","0","html-button-response","89","309941","0.0-89.0","5f432ba5c945de1a9be362a4","5f432ba5c945de1a9be362a4_20240212","","","5","41"
"1881","0","html-button-response","90","312330","0.0-90.0","5f432ba5c945de1a9be362a4","5f432ba5c945de1a9be362a4_20240212","","","5","49"
"2211","0","html-button-response","91","315051","0.0-91.0","5f432ba5c945de1a9be362a4","5f432ba5c945de1a9be362a4_20240212","","","6","166"
"2419","0","html-button-response","92","317986","0.0-92.0","5f432ba5c945de1a9be362a4","5f432ba5c945de1a9be362a4_20240212","","","2","52"
"2221","0","html-button-response","93","320726","0.0-93.0","5f432ba5c945de1a9be362a4","5f432ba5c945de1a9be362a4_20240212","","","2","42"
"2227","0","html-button-response","94","323469","0.0-94.0","5f432ba5c945de1a9be362a4","5f432ba5c945de1a9be362a4_20240212","","","4","169"
"2226","0","html-button-response","95","326208","0.0-95.0","5f432ba5c945de1a9be362a4","5f432ba5c945de1a9be362a4_20240212","","","6","157"
"2535","0","html-button-response","96","329252","0.0-96.0","5f432ba5c945de1a9be362a4","5f432ba5c945de1a9be362a4_20240212","","","7","106"
"2175","0","html-button-response","97","331944","0.0-97.0","5f432ba5c945de1a9be362a4","5f432ba5c945de1a9be362a4_20240212","","","7","175"
"2437","0","html-button-response","98","334892","0.0-98.0","5f432ba5c945de1a9be362a4","5f432ba5c945de1a9be362a4_20240212","","","5","93"
"2144","0","html-button-response","99","337540","0.0-99.0","5f432ba5c945de1a9be362a4","5f432ba5c945de1a9be362a4_20240212","","","6","159"
"3144","0","html-button-response","100","341193","0.0-100.0","5f432ba5c945de1a9be362a4","5f432ba5c945de1a9be362a4_20240212","","","6","174"
"2325","0","html-button-response","101","344026","0.0-101.0","5f432ba5c945de1a9be362a4","5f432ba5c945de1a9be362a4_20240212","","","5","48"
"2419","0","html-button-response","102","346959","0.0-102.0","5f432ba5c945de1a9be362a4","5f432ba5c945de1a9be362a4_20240212","","","4","47"
"2639","0","html-button-response","103","350107","0.0-103.0","5f432ba5c945de1a9be362a4","5f432ba5c945de1a9be362a4_20240212","","","5","168"
"2696","0","html-button-response","104","353314","0.0-104.0","5f432ba5c945de1a9be362a4","5f432ba5c945de1a9be362a4_20240212","","","2","51"
"2614","0","html-button-response","105","356436","0.0-105.0","5f432ba5c945de1a9be362a4","5f432ba5c945de1a9be362a4_20240212","","","2","54"
"2482","0","html-button-response","106","359433","0.0-106.0","5f432ba5c945de1a9be362a4","5f432ba5c945de1a9be362a4_20240212","","","4","40"
"3416","0","html-button-response","107","363364","0.0-107.0","5f432ba5c945de1a9be362a4","5f432ba5c945de1a9be362a4_20240212","","","2","45"
"2334","0","html-button-response","108","366205","0.0-108.0","5f432ba5c945de1a9be362a4","5f432ba5c945de1a9be362a4_20240212","","","8","99"
"2293","0","html-button-response","109","369008","0.0-109.0","5f432ba5c945de1a9be362a4","5f432ba5c945de1a9be362a4_20240212","","","7","164"
"3086","0","html-button-response","110","372598","0.0-110.0","5f432ba5c945de1a9be362a4","5f432ba5c945de1a9be362a4_20240212","","","8","95"
"2711","0","html-button-response","111","375821","0.0-111.0","5f432ba5c945de1a9be362a4","5f432ba5c945de1a9be362a4_20240212","","","7","170"
"2357","0","html-button-response","112","378688","0.0-112.0","5f432ba5c945de1a9be362a4","5f432ba5c945de1a9be362a4_20240212","","","9","94"
"2694","0","html-button-response","113","381898","0.0-113.0","5f432ba5c945de1a9be362a4","5f432ba5c945de1a9be362a4_20240212","","","3","39"
"2539","0","html-button-response","114","384946","0.0-114.0","5f432ba5c945de1a9be362a4","5f432ba5c945de1a9be362a4_20240212","","","7","158"
"2170","0","html-button-response","115","387624","0.0-115.0","5f432ba5c945de1a9be362a4","5f432ba5c945de1a9be362a4_20240212","","","7","167"
"2363","0","html-button-response","116","390491","0.0-116.0","5f432ba5c945de1a9be362a4","5f432ba5c945de1a9be362a4_20240212","","","5","46"
"2394","0","html-button-response","117","393397","0.0-117.0","5f432ba5c945de1a9be362a4","5f432ba5c945de1a9be362a4_20240212","","","8","98"
"2619","0","html-button-response","118","396539","0.0-118.0","5f432ba5c945de1a9be362a4","5f432ba5c945de1a9be362a4_20240212","","","5","182"
"2409","0","html-button-response","119","399466","0.0-119.0","5f432ba5c945de1a9be362a4","5f432ba5c945de1a9be362a4_20240212","","","3","38"
"2416","0","html-button-response","120","402395","0.0-120.0","5f432ba5c945de1a9be362a4","5f432ba5c945de1a9be362a4_20240212","","","6","165"
"3264","0","html-button-response","121","406171","0.0-121.0","5f432ba5c945de1a9be362a4","5f432ba5c945de1a9be362a4_20240212","","","8","105"
"2182","0","html-button-response","122","408865","0.0-122.0","5f432ba5c945de1a9be362a4","5f432ba5c945de1a9be362a4_20240212","","","9","97"
"2546","0","html-button-response","123","411922","0.0-123.0","5f432ba5c945de1a9be362a4","5f432ba5c945de1a9be362a4_20240212","","","1","53"
"2765","0","html-button-response","124","415212","0.0-124.0","5f432ba5c945de1a9be362a4","5f432ba5c945de1a9be362a4_20240212","","","4","183"
"2941","0","html-button-response","125","418665","0.0-125.0","5f432ba5c945de1a9be362a4","5f432ba5c945de1a9be362a4_20240212","","","8","163"
"1190","0","html-button-response","126","420364","0.0-126.0","5f432ba5c945de1a9be362a4","5f432ba5c945de1a9be362a4_20240212","","","",""
"2232","0","html-button-response","127","423107","0.0-127.0","5f432ba5c945de1a9be362a4","5f432ba5c945de1a9be362a4_20240212","","","9","142"
"2011","0","html-button-response","128","425628","0.0-128.0","5f432ba5c945de1a9be362a4","5f432ba5c945de1a9be362a4_20240212","","","9","84"
"2022","0","html-button-response","129","428171","0.0-129.0","5f432ba5c945de1a9be362a4","5f432ba5c945de1a9be362a4_20240212","","","9","78"
"2432","0","html-button-response","130","431128","0.0-130.0","5f432ba5c945de1a9be362a4","5f432ba5c945de1a9be362a4_20240212","","","8","27"
"1937","0","html-button-response","131","433583","0.0-131.0","5f432ba5c945de1a9be362a4","5f432ba5c945de1a9be362a4_20240212","","","8","28"
"2284","0","html-button-response","132","436381","0.0-132.0","5f432ba5c945de1a9be362a4","5f432ba5c945de1a9be362a4_20240212","","","8","23"
"2133","0","html-button-response","133","439022","0.0-133.0","5f432ba5c945de1a9be362a4","5f432ba5c945de1a9be362a4_20240212","","","9","77"
"2486","0","html-button-response","134","442018","0.0-134.0","5f432ba5c945de1a9be362a4","5f432ba5c945de1a9be362a4_20240212","","","9","179"
"1870","0","html-button-response","135","444410","0.0-135.0","5f432ba5c945de1a9be362a4","5f432ba5c945de1a9be362a4_20240212","","","9","138"
"2222","0","html-button-response","136","447148","0.0-136.0","5f432ba5c945de1a9be362a4","5f432ba5c945de1a9be362a4_20240212","","","9","81"
"1727","0","html-button-response","137","449393","0.0-137.0","5f432ba5c945de1a9be362a4","5f432ba5c945de1a9be362a4_20240212","","","9","82"
"2974","0","html-button-response","138","452875","0.0-138.0","5f432ba5c945de1a9be362a4","5f432ba5c945de1a9be362a4_20240212","","","9","154"
"3172","0","html-button-response","139","456557","0.0-139.0","5f432ba5c945de1a9be362a4","5f432ba5c945de1a9be362a4_20240212","","","8","180"
"3501","0","html-button-response","140","460567","0.0-140.0","5f432ba5c945de1a9be362a4","5f432ba5c945de1a9be362a4_20240212","","","9","140"
"2721","0","html-button-response","141","463800","0.0-141.0","5f432ba5c945de1a9be362a4","5f432ba5c945de1a9be362a4_20240212","","","5","34"
"2515","0","html-button-response","142","466823","0.0-142.0","5f432ba5c945de1a9be362a4","5f432ba5c945de1a9be362a4_20240212","","","9","146"
"1908","0","html-button-response","143","469255","0.0-143.0","5f432ba5c945de1a9be362a4","5f432ba5c945de1a9be362a4_20240212","","","9","87"
"2145","0","html-button-response","144","471928","0.0-144.0","5f432ba5c945de1a9be362a4","5f432ba5c945de1a9be362a4_20240212","","","9","76"
"2111","0","html-button-response","145","474554","0.0-145.0","5f432ba5c945de1a9be362a4","5f432ba5c945de1a9be362a4_20240212","","","9","139"
"1971","0","html-button-response","146","477040","0.0-146.0","5f432ba5c945de1a9be362a4","5f432ba5c945de1a9be362a4_20240212","","","9","148"
"1964","0","html-button-response","147","479510","0.0-147.0","5f432ba5c945de1a9be362a4","5f432ba5c945de1a9be362a4_20240212","","","9","137"
"3881","0","html-button-response","148","483905","0.0-148.0","5f432ba5c945de1a9be362a4","5f432ba5c945de1a9be362a4_20240212","","","9","178"
"2577","0","html-button-response","149","486991","0.0-149.0","5f432ba5c945de1a9be362a4","5f432ba5c945de1a9be362a4_20240212","","","9","73"
"2760","0","html-button-response","150","490263","0.0-150.0","5f432ba5c945de1a9be362a4","5f432ba5c945de1a9be362a4_20240212","","","7","32"
"2821","0","html-button-response","151","493602","0.0-151.0","5f432ba5c945de1a9be362a4","5f432ba5c945de1a9be362a4_20240212","","","7","29"
"3061","0","html-button-response","152","497183","0.0-152.0","5f432ba5c945de1a9be362a4","5f432ba5c945de1a9be362a4_20240212","","","9","145"
"2884","0","html-button-response","153","500574","0.0-153.0","5f432ba5c945de1a9be362a4","5f432ba5c945de1a9be362a4_20240212","","","5","26"
"2267","0","html-button-response","154","503358","0.0-154.0","5f432ba5c945de1a9be362a4","5f432ba5c945de1a9be362a4_20240212","","","9","90"
"1887","0","html-button-response","155","505760","0.0-155.0","5f432ba5c945de1a9be362a4","5f432ba5c945de1a9be362a4_20240212","","","9","136"
"2215","0","html-button-response","156","508488","0.0-156.0","5f432ba5c945de1a9be362a4","5f432ba5c945de1a9be362a4_20240212","","","8","83"
"2544","0","html-button-response","157","511543","0.0-157.0","5f432ba5c945de1a9be362a4","5f432ba5c945de1a9be362a4_20240212","","","8","86"
"3081","0","html-button-response","158","515130","0.0-158.0","5f432ba5c945de1a9be362a4","5f432ba5c945de1a9be362a4_20240212","","","6","21"
"2667","0","html-button-response","159","518311","0.0-159.0","5f432ba5c945de1a9be362a4","5f432ba5c945de1a9be362a4_20240212","","","9","134"
"2505","0","html-button-response","160","521324","0.0-160.0","5f432ba5c945de1a9be362a4","5f432ba5c945de1a9be362a4_20240212","","","9","80"
"3390","0","html-button-response","161","525228","0.0-161.0","5f432ba5c945de1a9be362a4","5f432ba5c945de1a9be362a4_20240212","","","9","24"
"2136","0","html-button-response","162","527871","0.0-162.0","5f432ba5c945de1a9be362a4","5f432ba5c945de1a9be362a4_20240212","","","9","141"
"2453","0","html-button-response","163","530840","0.0-163.0","5f432ba5c945de1a9be362a4","5f432ba5c945de1a9be362a4_20240212","","","9","150"
"2380","0","html-button-response","164","533735","0.0-164.0","5f432ba5c945de1a9be362a4","5f432ba5c945de1a9be362a4_20240212","","","7","25"
"5728","0","html-button-response","165","539973","0.0-165.0","5f432ba5c945de1a9be362a4","5f432ba5c945de1a9be362a4_20240212","","","5","36"
"2324","0","html-button-response","166","542816","0.0-166.0","5f432ba5c945de1a9be362a4","5f432ba5c945de1a9be362a4_20240212","","","9","89"
"2556","0","html-button-response","167","545882","0.0-167.0","5f432ba5c945de1a9be362a4","5f432ba5c945de1a9be362a4_20240212","","","9","144"
"2995","0","html-button-response","168","549386","0.0-168.0","5f432ba5c945de1a9be362a4","5f432ba5c945de1a9be362a4_20240212","","","9","88"
"2431","0","html-button-response","169","552324","0.0-169.0","5f432ba5c945de1a9be362a4","5f432ba5c945de1a9be362a4_20240212","","","7","19"
"3735","0","html-button-response","170","556569","0.0-170.0","5f432ba5c945de1a9be362a4","5f432ba5c945de1a9be362a4_20240212","","","5","33"
"3272","0","html-button-response","171","560354","0.0-171.0","5f432ba5c945de1a9be362a4","5f432ba5c945de1a9be362a4_20240212","","","9","149"
"2463","0","html-button-response","172","563333","0.0-172.0","5f432ba5c945de1a9be362a4","5f432ba5c945de1a9be362a4_20240212","","","9","143"
"2068","0","html-button-response","173","565914","0.0-173.0","5f432ba5c945de1a9be362a4","5f432ba5c945de1a9be362a4_20240212","","","9","135"
"3041","0","html-button-response","174","569467","0.0-174.0","5f432ba5c945de1a9be362a4","5f432ba5c945de1a9be362a4_20240212","","","9","74"
"2169","0","html-button-response","175","572149","0.0-175.0","5f432ba5c945de1a9be362a4","5f432ba5c945de1a9be362a4_20240212","","","9","151"
"2384","0","html-button-response","176","575042","0.0-176.0","5f432ba5c945de1a9be362a4","5f432ba5c945de1a9be362a4_20240212","","","7","31"
"2750","0","html-button-response","177","578311","0.0-177.0","5f432ba5c945de1a9be362a4","5f432ba5c945de1a9be362a4_20240212","","","7","30"
"2253","0","html-button-response","178","581090","0.0-178.0","5f432ba5c945de1a9be362a4","5f432ba5c945de1a9be362a4_20240212","","","7","35"
"2609","0","html-button-response","179","584210","0.0-179.0","5f432ba5c945de1a9be362a4","5f432ba5c945de1a9be362a4_20240212","","","4","20"
"2307","0","html-button-response","180","587037","0.0-180.0","5f432ba5c945de1a9be362a4","5f432ba5c945de1a9be362a4_20240212","","","9","132"
"2297","0","html-button-response","181","589845","0.0-181.0","5f432ba5c945de1a9be362a4","5f432ba5c945de1a9be362a4_20240212","","","9","133"
"1913","0","html-button-response","182","592270","0.0-182.0","5f432ba5c945de1a9be362a4","5f432ba5c945de1a9be362a4_20240212","","","9","79"
"3050","0","html-button-response","183","595834","0.0-183.0","5f432ba5c945de1a9be362a4","5f432ba5c945de1a9be362a4_20240212","","","7","22"
"2073","0","html-button-response","184","598428","0.0-184.0","5f432ba5c945de1a9be362a4","5f432ba5c945de1a9be362a4_20240212","","","9","147"
"2019","0","html-button-response","185","600958","0.0-185.0","5f432ba5c945de1a9be362a4","5f432ba5c945de1a9be362a4_20240212","","","9","152"
"1909","0","html-button-response","186","603380","0.0-186.0","5f432ba5c945de1a9be362a4","5f432ba5c945de1a9be362a4_20240212","","","9","153"
"1804","0","html-button-response","187","605698","0.0-187.0","5f432ba5c945de1a9be362a4","5f432ba5c945de1a9be362a4_20240212","","","9","85"
"1876","0","html-button-response","188","608081","0.0-188.0","5f432ba5c945de1a9be362a4","5f432ba5c945de1a9be362a4_20240212","","","9","75"
"2231","0","html-button-response","189","610816","0.0-189.0","5f432ba5c945de1a9be362a4","5f432ba5c945de1a9be362a4_20240212","","Thank you. You have reached the end. 
                       <br>Click the button below to reveal your compensation.
                        <br><br>","",""
