rt,response,trial_type,trial_index,time_elapsed,internal_node_id,part_ID,ID_DATE,screen_id,stimulus,rating,img_id
5492,0,html-button-response,0,5499,0.0-0.0,5c479f6935d2e80001e2ce81,5c479f6935d2e80001e2ce81_20240212,,,,
3620,[object Object],survey-html-form,1,9627,0.0-1.0,5c479f6935d2e80001e2ce81,5c479f6935d2e80001e2ce81_20240212,prolific_id_page,,,
5967,0,html-button-response,2,15595,0.0-2.0,5c479f6935d2e80001e2ce81,5c479f6935d2e80001e2ce81_20240212,,,,
1213,0,html-button-response,3,17316,0.0-3.0,5c479f6935d2e80001e2ce81,5c479f6935d2e80001e2ce81_20240212,,"
<div>
Great! You will now go on to rate the faces.
<br><br>
</div>
",,
3550,0,html-button-response,4,21374,0.0-4.0,5c479f6935d2e80001e2ce81,5c479f6935d2e80001e2ce81_20240212,,,7,178
3958,0,html-button-response,5,25844,0.0-5.0,5c479f6935d2e80001e2ce81,5c479f6935d2e80001e2ce81_20240212,,,7,137
2587,0,html-button-response,6,28941,0.0-6.0,5c479f6935d2e80001e2ce81,5c479f6935d2e80001e2ce81_20240212,,,5,30
2635,0,html-button-response,7,32078,0.0-7.0,5c479f6935d2e80001e2ce81,5c479f6935d2e80001e2ce81_20240212,,,7,150
3806,0,html-button-response,8,36398,0.0-8.0,5c479f6935d2e80001e2ce81,5c479f6935d2e80001e2ce81_20240212,,,7,148
4035,0,html-button-response,9,40949,0.0-9.0,5c479f6935d2e80001e2ce81,5c479f6935d2e80001e2ce81_20240212,,,5,87
2479,0,html-button-response,10,43938,0.0-10.0,5c479f6935d2e80001e2ce81,5c479f6935d2e80001e2ce81_20240212,,,7,151
4333,0,html-button-response,11,48786,0.0-11.0,5c479f6935d2e80001e2ce81,5c479f6935d2e80001e2ce81_20240212,,,4,27
3482,0,html-button-response,12,52774,0.0-12.0,5c479f6935d2e80001e2ce81,5c479f6935d2e80001e2ce81_20240212,,,4,31
2981,0,html-button-response,13,56264,0.0-13.0,5c479f6935d2e80001e2ce81,5c479f6935d2e80001e2ce81_20240212,,,8,81
2817,0,html-button-response,14,59584,0.0-14.0,5c479f6935d2e80001e2ce81,5c479f6935d2e80001e2ce81_20240212,,,8,79
3045,0,html-button-response,15,63138,0.0-15.0,5c479f6935d2e80001e2ce81,5c479f6935d2e80001e2ce81_20240212,,,9,80
3740,0,html-button-response,16,67387,0.0-16.0,5c479f6935d2e80001e2ce81,5c479f6935d2e80001e2ce81_20240212,,,7,76
2473,0,html-button-response,17,70375,0.0-17.0,5c479f6935d2e80001e2ce81,5c479f6935d2e80001e2ce81_20240212,,,8,74
5083,0,html-button-response,18,75973,0.0-18.0,5c479f6935d2e80001e2ce81,5c479f6935d2e80001e2ce81_20240212,,,3,35
2401,0,html-button-response,19,78878,0.0-19.0,5c479f6935d2e80001e2ce81,5c479f6935d2e80001e2ce81_20240212,,,7,84
3291,0,html-button-response,20,82673,0.0-20.0,5c479f6935d2e80001e2ce81,5c479f6935d2e80001e2ce81_20240212,,,7,179
3077,0,html-button-response,21,86265,0.0-21.0,5c479f6935d2e80001e2ce81,5c479f6935d2e80001e2ce81_20240212,,,8,85
3187,0,html-button-response,22,89958,0.0-22.0,5c479f6935d2e80001e2ce81,5c479f6935d2e80001e2ce81_20240212,,,6,149
2801,0,html-button-response,23,93263,0.0-23.0,5c479f6935d2e80001e2ce81,5c479f6935d2e80001e2ce81_20240212,,,8,89
3806,0,html-button-response,24,97573,0.0-24.0,5c479f6935d2e80001e2ce81,5c479f6935d2e80001e2ce81_20240212,,,7,134
7064,0,html-button-response,25,105142,0.0-25.0,5c479f6935d2e80001e2ce81,5c479f6935d2e80001e2ce81_20240212,,,8,88
3634,0,html-button-response,26,109285,0.0-26.0,5c479f6935d2e80001e2ce81,5c479f6935d2e80001e2ce81_20240212,,,3,153
3497,0,html-button-response,27,113287,0.0-27.0,5c479f6935d2e80001e2ce81,5c479f6935d2e80001e2ce81_20240212,,,3,135
4762,0,html-button-response,28,118559,0.0-28.0,5c479f6935d2e80001e2ce81,5c479f6935d2e80001e2ce81_20240212,,,4,141
4067,0,html-button-response,29,123133,0.0-29.0,5c479f6935d2e80001e2ce81,5c479f6935d2e80001e2ce81_20240212,,,5,152
5573,0,html-button-response,30,129222,0.0-30.0,5c479f6935d2e80001e2ce81,5c479f6935d2e80001e2ce81_20240212,,,4,143
8535,0,html-button-response,31,138264,0.0-31.0,5c479f6935d2e80001e2ce81,5c479f6935d2e80001e2ce81_20240212,,,5,145
4994,0,html-button-response,32,143765,0.0-32.0,5c479f6935d2e80001e2ce81,5c479f6935d2e80001e2ce81_20240212,,,6,147
5256,0,html-button-response,33,149534,0.0-33.0,5c479f6935d2e80001e2ce81,5c479f6935d2e80001e2ce81_20240212,,,4,36
4958,0,html-button-response,34,155005,0.0-34.0,5c479f6935d2e80001e2ce81,5c479f6935d2e80001e2ce81_20240212,,,6,144
7816,0,html-button-response,35,163327,0.0-35.0,5c479f6935d2e80001e2ce81,5c479f6935d2e80001e2ce81_20240212,,,6,90
3777,0,html-button-response,36,167611,0.0-36.0,5c479f6935d2e80001e2ce81,5c479f6935d2e80001e2ce81_20240212,,,4,19
3931,0,html-button-response,37,172054,0.0-37.0,5c479f6935d2e80001e2ce81,5c479f6935d2e80001e2ce81_20240212,,,4,33
2627,0,html-button-response,38,175182,0.0-38.0,5c479f6935d2e80001e2ce81,5c479f6935d2e80001e2ce81_20240212,,,7,139
3302,0,html-button-response,39,178989,0.0-39.0,5c479f6935d2e80001e2ce81,5c479f6935d2e80001e2ce81_20240212,,,5,29
6173,0,html-button-response,40,185678,0.0-40.0,5c479f6935d2e80001e2ce81,5c479f6935d2e80001e2ce81_20240212,,,8,180
6047,0,html-button-response,41,192239,0.0-41.0,5c479f6935d2e80001e2ce81,5c479f6935d2e80001e2ce81_20240212,,,6,23
2383,0,html-button-response,42,195134,0.0-42.0,5c479f6935d2e80001e2ce81,5c479f6935d2e80001e2ce81_20240212,,,7,154
3166,0,html-button-response,43,198814,0.0-43.0,5c479f6935d2e80001e2ce81,5c479f6935d2e80001e2ce81_20240212,,,8,82
3905,0,html-button-response,44,203231,0.0-44.0,5c479f6935d2e80001e2ce81,5c479f6935d2e80001e2ce81_20240212,,,7,142
3272,0,html-button-response,45,207015,0.0-45.0,5c479f6935d2e80001e2ce81,5c479f6935d2e80001e2ce81_20240212,,,8,78
2915,0,html-button-response,46,210441,0.0-46.0,5c479f6935d2e80001e2ce81,5c479f6935d2e80001e2ce81_20240212,,,7,138
4009,0,html-button-response,47,214958,0.0-47.0,5c479f6935d2e80001e2ce81,5c479f6935d2e80001e2ce81_20240212,,,3,25
2962,0,html-button-response,48,218438,0.0-48.0,5c479f6935d2e80001e2ce81,5c479f6935d2e80001e2ce81_20240212,,,9,73
4595,0,html-button-response,49,223545,0.0-49.0,5c479f6935d2e80001e2ce81,5c479f6935d2e80001e2ce81_20240212,,,3,34
6413,0,html-button-response,50,230469,0.0-50.0,5c479f6935d2e80001e2ce81,5c479f6935d2e80001e2ce81_20240212,,,5,32
4443,0,html-button-response,51,235423,0.0-51.0,5c479f6935d2e80001e2ce81,5c479f6935d2e80001e2ce81_20240212,,,5,26
4981,0,html-button-response,52,240910,0.0-52.0,5c479f6935d2e80001e2ce81,5c479f6935d2e80001e2ce81_20240212,,,6,83
6059,0,html-button-response,53,247484,0.0-53.0,5c479f6935d2e80001e2ce81,5c479f6935d2e80001e2ce81_20240212,,,6,24
5838,0,html-button-response,54,253831,0.0-54.0,5c479f6935d2e80001e2ce81,5c479f6935d2e80001e2ce81_20240212,,,7,140
3917,0,html-button-response,55,258259,0.0-55.0,5c479f6935d2e80001e2ce81,5c479f6935d2e80001e2ce81_20240212,,,3,21
2997,0,html-button-response,56,261758,0.0-56.0,5c479f6935d2e80001e2ce81,5c479f6935d2e80001e2ce81_20240212,,,6,133
4665,0,html-button-response,57,266934,0.0-57.0,5c479f6935d2e80001e2ce81,5c479f6935d2e80001e2ce81_20240212,,,8,136
4499,0,html-button-response,58,271950,0.0-58.0,5c479f6935d2e80001e2ce81,5c479f6935d2e80001e2ce81_20240212,,,3,28
7562,0,html-button-response,59,280020,0.0-59.0,5c479f6935d2e80001e2ce81,5c479f6935d2e80001e2ce81_20240212,,,3,77
2558,0,html-button-response,60,283094,0.0-60.0,5c479f6935d2e80001e2ce81,5c479f6935d2e80001e2ce81_20240212,,,6,132
2643,0,html-button-response,61,286239,0.0-61.0,5c479f6935d2e80001e2ce81,5c479f6935d2e80001e2ce81_20240212,,,6,146
6375,0,html-button-response,62,293130,0.0-62.0,5c479f6935d2e80001e2ce81,5c479f6935d2e80001e2ce81_20240212,,,7,75
3149,0,html-button-response,63,296780,0.0-63.0,5c479f6935d2e80001e2ce81,5c479f6935d2e80001e2ce81_20240212,,,3,86
3252,0,html-button-response,64,300533,0.0-64.0,5c479f6935d2e80001e2ce81,5c479f6935d2e80001e2ce81_20240212,,,2,20
3822,0,html-button-response,65,304870,0.0-65.0,5c479f6935d2e80001e2ce81,5c479f6935d2e80001e2ce81_20240212,,,2,22
1425,0,html-button-response,66,306807,0.0-66.0,5c479f6935d2e80001e2ce81,5c479f6935d2e80001e2ce81_20240212,,,,
5059,0,html-button-response,67,312379,0.0-67.0,5c479f6935d2e80001e2ce81,5c479f6935d2e80001e2ce81_20240212,,,6,92
3473,0,html-button-response,68,316366,0.0-68.0,5c479f6935d2e80001e2ce81,5c479f6935d2e80001e2ce81_20240212,,,5,163
2267,0,html-button-response,69,319141,0.0-69.0,5c479f6935d2e80001e2ce81,5c479f6935d2e80001e2ce81_20240212,,,6,160
3137,0,html-button-response,70,322784,0.0-70.0,5c479f6935d2e80001e2ce81,5c479f6935d2e80001e2ce81_20240212,,,6,169
5156,0,html-button-response,71,328446,0.0-71.0,5c479f6935d2e80001e2ce81,5c479f6935d2e80001e2ce81_20240212,,,3,108
2590,0,html-button-response,72,331552,0.0-72.0,5c479f6935d2e80001e2ce81,5c479f6935d2e80001e2ce81_20240212,,,2,39
4383,0,html-button-response,73,336446,0.0-73.0,5c479f6935d2e80001e2ce81,5c479f6935d2e80001e2ce81_20240212,,,4,103
3391,0,html-button-response,74,340349,0.0-74.0,5c479f6935d2e80001e2ce81,5c479f6935d2e80001e2ce81_20240212,,,2,183
2283,0,html-button-response,75,343134,0.0-75.0,5c479f6935d2e80001e2ce81,5c479f6935d2e80001e2ce81_20240212,,,4,159
5197,0,html-button-response,76,348838,0.0-76.0,5c479f6935d2e80001e2ce81,5c479f6935d2e80001e2ce81_20240212,,,6,107
2239,0,html-button-response,77,351583,0.0-77.0,5c479f6935d2e80001e2ce81,5c479f6935d2e80001e2ce81_20240212,,,6,94
3309,0,html-button-response,78,355396,0.0-78.0,5c479f6935d2e80001e2ce81,5c479f6935d2e80001e2ce81_20240212,,,3,98
4042,0,html-button-response,79,359941,0.0-79.0,5c479f6935d2e80001e2ce81,5c479f6935d2e80001e2ce81_20240212,,,5,156
3693,0,html-button-response,80,364150,0.0-80.0,5c479f6935d2e80001e2ce81,5c479f6935d2e80001e2ce81_20240212,,,6,157
3442,0,html-button-response,81,368093,0.0-81.0,5c479f6935d2e80001e2ce81,5c479f6935d2e80001e2ce81_20240212,,,7,102
5592,0,html-button-response,82,374199,0.0-82.0,5c479f6935d2e80001e2ce81,5c479f6935d2e80001e2ce81_20240212,,,4,54
5132,0,html-button-response,83,379839,0.0-83.0,5c479f6935d2e80001e2ce81,5c479f6935d2e80001e2ce81_20240212,,,3,51
4448,0,html-button-response,84,384801,0.0-84.0,5c479f6935d2e80001e2ce81,5c479f6935d2e80001e2ce81_20240212,,,3,53
3709,0,html-button-response,85,389021,0.0-85.0,5c479f6935d2e80001e2ce81,5c479f6935d2e80001e2ce81_20240212,,,4,165
2440,0,html-button-response,86,391974,0.0-86.0,5c479f6935d2e80001e2ce81,5c479f6935d2e80001e2ce81_20240212,,,6,96
4404,0,html-button-response,87,396894,0.0-87.0,5c479f6935d2e80001e2ce81,5c479f6935d2e80001e2ce81_20240212,,,3,182
2766,0,html-button-response,88,400173,0.0-88.0,5c479f6935d2e80001e2ce81,5c479f6935d2e80001e2ce81_20240212,,,4,174
3776,0,html-button-response,89,404454,0.0-89.0,5c479f6935d2e80001e2ce81,5c479f6935d2e80001e2ce81_20240212,,,5,170
3607,0,html-button-response,90,408575,0.0-90.0,5c479f6935d2e80001e2ce81,5c479f6935d2e80001e2ce81_20240212,,,4,158
5403,0,html-button-response,91,414485,0.0-91.0,5c479f6935d2e80001e2ce81,5c479f6935d2e80001e2ce81_20240212,,,5,52
2558,0,html-button-response,92,417547,0.0-92.0,5c479f6935d2e80001e2ce81,5c479f6935d2e80001e2ce81_20240212,,,6,171
5948,0,html-button-response,93,424005,0.0-93.0,5c479f6935d2e80001e2ce81,5c479f6935d2e80001e2ce81_20240212,,,4,49
3176,0,html-button-response,94,427685,0.0-94.0,5c479f6935d2e80001e2ce81,5c479f6935d2e80001e2ce81_20240212,,,3,47
4707,0,html-button-response,95,432895,0.0-95.0,5c479f6935d2e80001e2ce81,5c479f6935d2e80001e2ce81_20240212,,,3,40
3276,0,html-button-response,96,436676,0.0-96.0,5c479f6935d2e80001e2ce81,5c479f6935d2e80001e2ce81_20240212,,,5,175
2600,0,html-button-response,97,439783,0.0-97.0,5c479f6935d2e80001e2ce81,5c479f6935d2e80001e2ce81_20240212,,,6,164
2881,0,html-button-response,98,443166,0.0-98.0,5c479f6935d2e80001e2ce81,5c479f6935d2e80001e2ce81_20240212,,,5,167
2716,0,html-button-response,99,446392,0.0-99.0,5c479f6935d2e80001e2ce81,5c479f6935d2e80001e2ce81_20240212,,,6,104
3665,0,html-button-response,100,450565,0.0-100.0,5c479f6935d2e80001e2ce81,5c479f6935d2e80001e2ce81_20240212,,,2,181
3403,0,html-button-response,101,454469,0.0-101.0,5c479f6935d2e80001e2ce81,5c479f6935d2e80001e2ce81_20240212,,,6,173
2351,0,html-button-response,102,457335,0.0-102.0,5c479f6935d2e80001e2ce81,5c479f6935d2e80001e2ce81_20240212,,,6,161
7795,0,html-button-response,103,465639,0.0-103.0,5c479f6935d2e80001e2ce81,5c479f6935d2e80001e2ce81_20240212,,,4,95
3788,0,html-button-response,104,469935,0.0-104.0,5c479f6935d2e80001e2ce81,5c479f6935d2e80001e2ce81_20240212,,,2,41
4063,0,html-button-response,105,474502,0.0-105.0,5c479f6935d2e80001e2ce81,5c479f6935d2e80001e2ce81_20240212,,,2,43
4223,0,html-button-response,106,479231,0.0-106.0,5c479f6935d2e80001e2ce81,5c479f6935d2e80001e2ce81_20240212,,,3,168
2463,0,html-button-response,107,482206,0.0-107.0,5c479f6935d2e80001e2ce81,5c479f6935d2e80001e2ce81_20240212,,,6,97
5678,0,html-button-response,108,488398,0.0-108.0,5c479f6935d2e80001e2ce81,5c479f6935d2e80001e2ce81_20240212,,,6,177
5162,0,html-button-response,109,494074,0.0-109.0,5c479f6935d2e80001e2ce81,5c479f6935d2e80001e2ce81_20240212,,,4,45
3687,0,html-button-response,110,498262,0.0-110.0,5c479f6935d2e80001e2ce81,5c479f6935d2e80001e2ce81_20240212,,,5,172
3560,0,html-button-response,111,502326,0.0-111.0,5c479f6935d2e80001e2ce81,5c479f6935d2e80001e2ce81_20240212,,,6,166
2495,0,html-button-response,112,505333,0.0-112.0,5c479f6935d2e80001e2ce81,5c479f6935d2e80001e2ce81_20240212,,,5,176
3515,0,html-button-response,113,509353,0.0-113.0,5c479f6935d2e80001e2ce81,5c479f6935d2e80001e2ce81_20240212,,,6,50
2959,0,html-button-response,114,512822,0.0-114.0,5c479f6935d2e80001e2ce81,5c479f6935d2e80001e2ce81_20240212,,,6,101
3190,0,html-button-response,115,516526,0.0-115.0,5c479f6935d2e80001e2ce81,5c479f6935d2e80001e2ce81_20240212,,,5,105
3712,0,html-button-response,116,520751,0.0-116.0,5c479f6935d2e80001e2ce81,5c479f6935d2e80001e2ce81_20240212,,,2,44
3583,0,html-button-response,117,524845,0.0-117.0,5c479f6935d2e80001e2ce81,5c479f6935d2e80001e2ce81_20240212,,,2,99
5728,0,html-button-response,118,531078,0.0-118.0,5c479f6935d2e80001e2ce81,5c479f6935d2e80001e2ce81_20240212,,,4,106
2988,0,html-button-response,119,534565,0.0-119.0,5c479f6935d2e80001e2ce81,5c479f6935d2e80001e2ce81_20240212,,,2,48
4881,0,html-button-response,120,539960,0.0-120.0,5c479f6935d2e80001e2ce81,5c479f6935d2e80001e2ce81_20240212,,,2,91
4966,0,html-button-response,121,545431,0.0-121.0,5c479f6935d2e80001e2ce81,5c479f6935d2e80001e2ce81_20240212,,,3,162
3130,0,html-button-response,122,549070,0.0-122.0,5c479f6935d2e80001e2ce81,5c479f6935d2e80001e2ce81_20240212,,,3,46
4205,0,html-button-response,123,553788,0.0-123.0,5c479f6935d2e80001e2ce81,5c479f6935d2e80001e2ce81_20240212,,,4,155
5906,0,html-button-response,124,560198,0.0-124.0,5c479f6935d2e80001e2ce81,5c479f6935d2e80001e2ce81_20240212,,,4,42
3568,0,html-button-response,125,564270,0.0-125.0,5c479f6935d2e80001e2ce81,5c479f6935d2e80001e2ce81_20240212,,,2,38
2682,0,html-button-response,126,567454,0.0-126.0,5c479f6935d2e80001e2ce81,5c479f6935d2e80001e2ce81_20240212,,,6,100
4367,0,html-button-response,127,572334,0.0-127.0,5c479f6935d2e80001e2ce81,5c479f6935d2e80001e2ce81_20240212,,,4,37
3770,0,html-button-response,128,576621,0.0-128.0,5c479f6935d2e80001e2ce81,5c479f6935d2e80001e2ce81_20240212,,,3,93
1945,0,html-button-response,129,579073,0.0-129.0,5c479f6935d2e80001e2ce81,5c479f6935d2e80001e2ce81_20240212,,,,
4640,0,html-button-response,130,584223,0.0-130.0,5c479f6935d2e80001e2ce81,5c479f6935d2e80001e2ce81_20240212,,,9,114
2936,0,html-button-response,131,587676,0.0-131.0,5c479f6935d2e80001e2ce81,5c479f6935d2e80001e2ce81_20240212,,,9,7
3601,0,html-button-response,132,591790,0.0-132.0,5c479f6935d2e80001e2ce81,5c479f6935d2e80001e2ce81_20240212,,,9,64
2286,0,html-button-response,133,594581,0.0-133.0,5c479f6935d2e80001e2ce81,5c479f6935d2e80001e2ce81_20240212,,,9,69
1938,0,html-button-response,134,597030,0.0-134.0,5c479f6935d2e80001e2ce81,5c479f6935d2e80001e2ce81_20240212,,,9,121
2958,0,html-button-response,135,600495,0.0-135.0,5c479f6935d2e80001e2ce81,5c479f6935d2e80001e2ce81_20240212,,,9,15
2219,0,html-button-response,136,603223,0.0-136.0,5c479f6935d2e80001e2ce81,5c479f6935d2e80001e2ce81_20240212,,,9,131
3304,0,html-button-response,137,607036,0.0-137.0,5c479f6935d2e80001e2ce81,5c479f6935d2e80001e2ce81_20240212,,,6,16
5227,0,html-button-response,138,612775,0.0-138.0,5c479f6935d2e80001e2ce81,5c479f6935d2e80001e2ce81_20240212,,,3,13
4951,0,html-button-response,139,618234,0.0-139.0,5c479f6935d2e80001e2ce81,5c479f6935d2e80001e2ce81_20240212,,,8,127
3098,0,html-button-response,140,621846,0.0-140.0,5c479f6935d2e80001e2ce81,5c479f6935d2e80001e2ce81_20240212,,,5,128
2460,0,html-button-response,141,624814,0.0-141.0,5c479f6935d2e80001e2ce81,5c479f6935d2e80001e2ce81_20240212,,,3,60
3254,0,html-button-response,142,628573,0.0-142.0,5c479f6935d2e80001e2ce81,5c479f6935d2e80001e2ce81_20240212,,,6,67
2367,0,html-button-response,143,631446,0.0-143.0,5c479f6935d2e80001e2ce81,5c479f6935d2e80001e2ce81_20240212,,,4,11
4959,0,html-button-response,144,636915,0.0-144.0,5c479f6935d2e80001e2ce81,5c479f6935d2e80001e2ce81_20240212,,,6,59
2805,0,html-button-response,145,640237,0.0-145.0,5c479f6935d2e80001e2ce81,5c479f6935d2e80001e2ce81_20240212,,,9,61
2164,0,html-button-response,146,642902,0.0-146.0,5c479f6935d2e80001e2ce81,5c479f6935d2e80001e2ce81_20240212,,,9,110
5076,0,html-button-response,147,648479,0.0-147.0,5c479f6935d2e80001e2ce81,5c479f6935d2e80001e2ce81_20240212,,,4,70
2663,0,html-button-response,148,651655,0.0-148.0,5c479f6935d2e80001e2ce81,5c479f6935d2e80001e2ce81_20240212,,,8,116
3671,0,html-button-response,149,655829,0.0-149.0,5c479f6935d2e80001e2ce81,5c479f6935d2e80001e2ce81_20240212,,,4,4
2624,0,html-button-response,150,658958,0.0-150.0,5c479f6935d2e80001e2ce81,5c479f6935d2e80001e2ce81_20240212,,,9,117
3333,0,html-button-response,151,662806,0.0-151.0,5c479f6935d2e80001e2ce81,5c479f6935d2e80001e2ce81_20240212,,,8,5
2402,0,html-button-response,152,665717,0.0-152.0,5c479f6935d2e80001e2ce81,5c479f6935d2e80001e2ce81_20240212,,,9,6
2106,0,html-button-response,153,668326,0.0-153.0,5c479f6935d2e80001e2ce81,5c479f6935d2e80001e2ce81_20240212,,,9,129
2663,0,html-button-response,154,671502,0.0-154.0,5c479f6935d2e80001e2ce81,5c479f6935d2e80001e2ce81_20240212,,,9,111
2825,0,html-button-response,155,674830,0.0-155.0,5c479f6935d2e80001e2ce81,5c479f6935d2e80001e2ce81_20240212,,,9,120
1811,0,html-button-response,156,677157,0.0-156.0,5c479f6935d2e80001e2ce81,5c479f6935d2e80001e2ce81_20240212,,,9,112
2601,0,html-button-response,157,680260,0.0-157.0,5c479f6935d2e80001e2ce81,5c479f6935d2e80001e2ce81_20240212,,,9,123
3496,0,html-button-response,158,684270,0.0-158.0,5c479f6935d2e80001e2ce81,5c479f6935d2e80001e2ce81_20240212,,,6,17
4431,0,html-button-response,159,689207,0.0-159.0,5c479f6935d2e80001e2ce81,5c479f6935d2e80001e2ce81_20240212,,,5,1
2303,0,html-button-response,160,692020,0.0-160.0,5c479f6935d2e80001e2ce81,5c479f6935d2e80001e2ce81_20240212,,,7,66
2799,0,html-button-response,161,695325,0.0-161.0,5c479f6935d2e80001e2ce81,5c479f6935d2e80001e2ce81_20240212,,,8,65
2666,0,html-button-response,162,698494,0.0-162.0,5c479f6935d2e80001e2ce81,5c479f6935d2e80001e2ce81_20240212,,,9,57
2809,0,html-button-response,163,701807,0.0-163.0,5c479f6935d2e80001e2ce81,5c479f6935d2e80001e2ce81_20240212,,,9,115
2513,0,html-button-response,164,704830,0.0-164.0,5c479f6935d2e80001e2ce81,5c479f6935d2e80001e2ce81_20240212,,,7,58
5014,0,html-button-response,165,710357,0.0-165.0,5c479f6935d2e80001e2ce81,5c479f6935d2e80001e2ce81_20240212,,,4,10
3453,0,html-button-response,166,714326,0.0-166.0,5c479f6935d2e80001e2ce81,5c479f6935d2e80001e2ce81_20240212,,,9,109
3973,0,html-button-response,167,718806,0.0-167.0,5c479f6935d2e80001e2ce81,5c479f6935d2e80001e2ce81_20240212,,,4,12
2059,0,html-button-response,168,721381,0.0-168.0,5c479f6935d2e80001e2ce81,5c479f6935d2e80001e2ce81_20240212,,,9,122
3231,0,html-button-response,169,725127,0.0-169.0,5c479f6935d2e80001e2ce81,5c479f6935d2e80001e2ce81_20240212,,,3,9
3323,0,html-button-response,170,728958,0.0-170.0,5c479f6935d2e80001e2ce81,5c479f6935d2e80001e2ce81_20240212,,,8,126
3462,0,html-button-response,171,732927,0.0-171.0,5c479f6935d2e80001e2ce81,5c479f6935d2e80001e2ce81_20240212,,,7,14
2953,0,html-button-response,172,736383,0.0-172.0,5c479f6935d2e80001e2ce81,5c479f6935d2e80001e2ce81_20240212,,,9,130
2733,0,html-button-response,173,739622,0.0-173.0,5c479f6935d2e80001e2ce81,5c479f6935d2e80001e2ce81_20240212,,,9,118
3926,0,html-button-response,174,744061,0.0-174.0,5c479f6935d2e80001e2ce81,5c479f6935d2e80001e2ce81_20240212,,,7,55
3052,0,html-button-response,175,747629,0.0-175.0,5c479f6935d2e80001e2ce81,5c479f6935d2e80001e2ce81_20240212,,,5,63
4544,0,html-button-response,176,752688,0.0-176.0,5c479f6935d2e80001e2ce81,5c479f6935d2e80001e2ce81_20240212,,,7,18
3072,0,html-button-response,177,756270,0.0-177.0,5c479f6935d2e80001e2ce81,5c479f6935d2e80001e2ce81_20240212,,,9,119
4617,0,html-button-response,178,761397,0.0-178.0,5c479f6935d2e80001e2ce81,5c479f6935d2e80001e2ce81_20240212,,,4,56
1978,0,html-button-response,179,763879,0.0-179.0,5c479f6935d2e80001e2ce81,5c479f6935d2e80001e2ce81_20240212,,,9,62
3584,0,html-button-response,180,767967,0.0-180.0,5c479f6935d2e80001e2ce81,5c479f6935d2e80001e2ce81_20240212,,,4,71
3589,0,html-button-response,181,772070,0.0-181.0,5c479f6935d2e80001e2ce81,5c479f6935d2e80001e2ce81_20240212,,,5,125
5434,0,html-button-response,182,778007,0.0-182.0,5c479f6935d2e80001e2ce81,5c479f6935d2e80001e2ce81_20240212,,,7,2
2246,0,html-button-response,183,780760,0.0-183.0,5c479f6935d2e80001e2ce81,5c479f6935d2e80001e2ce81_20240212,,,9,124
5728,0,html-button-response,184,786997,0.0-184.0,5c479f6935d2e80001e2ce81,5c479f6935d2e80001e2ce81_20240212,,,4,3
3105,0,html-button-response,185,790609,0.0-185.0,5c479f6935d2e80001e2ce81,5c479f6935d2e80001e2ce81_20240212,,,6,72
2188,0,html-button-response,186,793301,0.0-186.0,5c479f6935d2e80001e2ce81,5c479f6935d2e80001e2ce81_20240212,,,8,8
4406,0,html-button-response,187,798221,0.0-187.0,5c479f6935d2e80001e2ce81,5c479f6935d2e80001e2ce81_20240212,,,4,68
2403,0,html-button-response,188,801127,0.0-188.0,5c479f6935d2e80001e2ce81,5c479f6935d2e80001e2ce81_20240212,,,9,113
1254,0,html-button-response,189,802885,0.0-189.0,5c479f6935d2e80001e2ce81,5c479f6935d2e80001e2ce81_20240212,,"Thank you. You have reached the end. 
                       <br>Click the button below to reveal your compensation.
                        <br><br>",,