rt,response,trial_type,trial_index,time_elapsed,internal_node_id,part_ID,ID_DATE,screen_id,stimulus,rating,img_id
2812,0,html-button-response,0,2813,0.0-0.0,5b1dfad43522660001b4510d,5b1dfad43522660001b4510d_20240212,,,,
5633,[object Object],survey-html-form,1,8951,0.0-1.0,5b1dfad43522660001b4510d,5b1dfad43522660001b4510d_20240212,prolific_id_page,,,
351690,0,html-button-response,2,360641,0.0-2.0,5b1dfad43522660001b4510d,5b1dfad43522660001b4510d_20240212,,,,
611556,0,html-button-response,3,972701,0.0-3.0,5b1dfad43522660001b4510d,5b1dfad43522660001b4510d_20240212,,"
<div>
Great! You will now go on to rate the faces.
<br><br>
</div>
",,
5888,0,html-button-response,4,979095,0.0-4.0,5b1dfad43522660001b4510d,5b1dfad43522660001b4510d_20240212,,,3,12
8795,0,html-button-response,5,988398,0.0-5.0,5b1dfad43522660001b4510d,5b1dfad43522660001b4510d_20240212,,,5,131
217817,0,html-button-response,6,1206727,0.0-6.0,5b1dfad43522660001b4510d,5b1dfad43522660001b4510d_20240212,,,5,69
305081,0,html-button-response,7,1512311,0.0-7.0,5b1dfad43522660001b4510d,5b1dfad43522660001b4510d_20240212,,,5,112
4777,0,html-button-response,8,1517592,0.0-8.0,5b1dfad43522660001b4510d,5b1dfad43522660001b4510d_20240212,,,1,60
3414,0,html-button-response,9,1521522,0.0-9.0,5b1dfad43522660001b4510d,5b1dfad43522660001b4510d_20240212,,,5,110
4040,0,html-button-response,10,1526065,0.0-10.0,5b1dfad43522660001b4510d,5b1dfad43522660001b4510d_20240212,,,4,5
4916,0,html-button-response,11,1531494,0.0-11.0,5b1dfad43522660001b4510d,5b1dfad43522660001b4510d_20240212,,,4,129
3224,0,html-button-response,12,1535231,0.0-12.0,5b1dfad43522660001b4510d,5b1dfad43522660001b4510d_20240212,,,5,61
2476,0,html-button-response,13,1538215,0.0-13.0,5b1dfad43522660001b4510d,5b1dfad43522660001b4510d_20240212,,,5,72
8024,0,html-button-response,14,1546741,0.0-14.0,5b1dfad43522660001b4510d,5b1dfad43522660001b4510d_20240212,,,8,130
2765,0,html-button-response,15,1550019,0.0-15.0,5b1dfad43522660001b4510d,5b1dfad43522660001b4510d_20240212,,,8,67
3204,0,html-button-response,16,1553727,0.0-16.0,5b1dfad43522660001b4510d,5b1dfad43522660001b4510d_20240212,,,9,124
6083,0,html-button-response,17,1560323,0.0-17.0,5b1dfad43522660001b4510d,5b1dfad43522660001b4510d_20240212,,,6,11
3123,0,html-button-response,18,1563947,0.0-18.0,5b1dfad43522660001b4510d,5b1dfad43522660001b4510d_20240212,,,8,121
1996,0,html-button-response,19,1566444,0.0-19.0,5b1dfad43522660001b4510d,5b1dfad43522660001b4510d_20240212,,,8,118
373025,0,html-button-response,20,1939984,0.0-20.0,5b1dfad43522660001b4510d,5b1dfad43522660001b4510d_20240212,,,9,59
5544,0,html-button-response,21,1946037,0.0-21.0,5b1dfad43522660001b4510d,5b1dfad43522660001b4510d_20240212,,,4,10
2237,0,html-button-response,22,1948776,0.0-22.0,5b1dfad43522660001b4510d,5b1dfad43522660001b4510d_20240212,,,3,1
2102,0,html-button-response,23,1951390,0.0-23.0,5b1dfad43522660001b4510d,5b1dfad43522660001b4510d_20240212,,,8,117
2750,0,html-button-response,24,1954641,0.0-24.0,5b1dfad43522660001b4510d,5b1dfad43522660001b4510d_20240212,,,8,66
2147,0,html-button-response,25,1957289,0.0-25.0,5b1dfad43522660001b4510d,5b1dfad43522660001b4510d_20240212,,,9,65
3180,0,html-button-response,26,1960978,0.0-26.0,5b1dfad43522660001b4510d,5b1dfad43522660001b4510d_20240212,,,3,68
4433,0,html-button-response,27,1965918,0.0-27.0,5b1dfad43522660001b4510d,5b1dfad43522660001b4510d_20240212,,,6,6
2618,0,html-button-response,28,1969037,0.0-28.0,5b1dfad43522660001b4510d,5b1dfad43522660001b4510d_20240212,,,5,18
7171,0,html-button-response,29,1976710,0.0-29.0,5b1dfad43522660001b4510d,5b1dfad43522660001b4510d_20240212,,,4,71
2566,0,html-button-response,30,1979787,0.0-30.0,5b1dfad43522660001b4510d,5b1dfad43522660001b4510d_20240212,,,2,14
8428,0,html-button-response,31,1988719,0.0-31.0,5b1dfad43522660001b4510d,5b1dfad43522660001b4510d_20240212,,,3,15
21649,0,html-button-response,32,2010871,0.0-32.0,5b1dfad43522660001b4510d,5b1dfad43522660001b4510d_20240212,,,5,116
2011,0,html-button-response,33,2013391,0.0-33.0,5b1dfad43522660001b4510d,5b1dfad43522660001b4510d_20240212,,,4,114
34862,0,html-button-response,34,2048759,0.0-34.0,5b1dfad43522660001b4510d,5b1dfad43522660001b4510d_20240212,,,5,7
2519,0,html-button-response,35,2051779,0.0-35.0,5b1dfad43522660001b4510d,5b1dfad43522660001b4510d_20240212,,,2,63
1746,0,html-button-response,36,2054030,0.0-36.0,5b1dfad43522660001b4510d,5b1dfad43522660001b4510d_20240212,,,3,16
5136,0,html-button-response,37,2059669,0.0-37.0,5b1dfad43522660001b4510d,5b1dfad43522660001b4510d_20240212,,,9,58
2180,0,html-button-response,38,2062350,0.0-38.0,5b1dfad43522660001b4510d,5b1dfad43522660001b4510d_20240212,,,5,57
1917,0,html-button-response,39,2064770,0.0-39.0,5b1dfad43522660001b4510d,5b1dfad43522660001b4510d_20240212,,,6,125
4493,0,html-button-response,40,2069779,0.0-40.0,5b1dfad43522660001b4510d,5b1dfad43522660001b4510d_20240212,,,8,55
3002,0,html-button-response,41,2073285,0.0-41.0,5b1dfad43522660001b4510d,5b1dfad43522660001b4510d_20240212,,,2,2
7323,0,html-button-response,42,2081118,0.0-42.0,5b1dfad43522660001b4510d,5b1dfad43522660001b4510d_20240212,,,9,113
2067,0,html-button-response,43,2083691,0.0-43.0,5b1dfad43522660001b4510d,5b1dfad43522660001b4510d_20240212,,,3,13
4938,0,html-button-response,44,2089143,0.0-44.0,5b1dfad43522660001b4510d,5b1dfad43522660001b4510d_20240212,,,7,120
2685,0,html-button-response,45,2092334,0.0-45.0,5b1dfad43522660001b4510d,5b1dfad43522660001b4510d_20240212,,,2,17
2147,0,html-button-response,46,2094982,0.0-46.0,5b1dfad43522660001b4510d,5b1dfad43522660001b4510d_20240212,,,6,8
2136,0,html-button-response,47,2097631,0.0-47.0,5b1dfad43522660001b4510d,5b1dfad43522660001b4510d_20240212,,,8,127
2823,0,html-button-response,48,2100955,0.0-48.0,5b1dfad43522660001b4510d,5b1dfad43522660001b4510d_20240212,,,9,62
9782,0,html-button-response,49,2111248,0.0-49.0,5b1dfad43522660001b4510d,5b1dfad43522660001b4510d_20240212,,,9,119
2287,0,html-button-response,50,2114043,0.0-50.0,5b1dfad43522660001b4510d,5b1dfad43522660001b4510d_20240212,,,4,64
2408,0,html-button-response,51,2116957,0.0-51.0,5b1dfad43522660001b4510d,5b1dfad43522660001b4510d_20240212,,,1,9
3324,0,html-button-response,52,2120784,0.0-52.0,5b1dfad43522660001b4510d,5b1dfad43522660001b4510d_20240212,,,8,56
2633,0,html-button-response,53,2123928,0.0-53.0,5b1dfad43522660001b4510d,5b1dfad43522660001b4510d_20240212,,,9,126
2080,0,html-button-response,54,2126522,0.0-54.0,5b1dfad43522660001b4510d,5b1dfad43522660001b4510d_20240212,,,3,4
3017,0,html-button-response,55,2130053,0.0-55.0,5b1dfad43522660001b4510d,5b1dfad43522660001b4510d_20240212,,,9,111
1973,0,html-button-response,56,2132530,0.0-56.0,5b1dfad43522660001b4510d,5b1dfad43522660001b4510d_20240212,,,2,3
2246,0,html-button-response,57,2135290,0.0-57.0,5b1dfad43522660001b4510d,5b1dfad43522660001b4510d_20240212,,,9,109
2038,0,html-button-response,58,2137829,0.0-58.0,5b1dfad43522660001b4510d,5b1dfad43522660001b4510d_20240212,,,9,122
1827,0,html-button-response,59,2140157,0.0-59.0,5b1dfad43522660001b4510d,5b1dfad43522660001b4510d_20240212,,,8,128
1791,0,html-button-response,60,2142464,0.0-60.0,5b1dfad43522660001b4510d,5b1dfad43522660001b4510d_20240212,,,8,123
2940,0,html-button-response,61,2145910,0.0-61.0,5b1dfad43522660001b4510d,5b1dfad43522660001b4510d_20240212,,,7,70
2131,0,html-button-response,62,2148546,0.0-62.0,5b1dfad43522660001b4510d,5b1dfad43522660001b4510d_20240212,,,8,115
1303,0,html-button-response,63,2150362,0.0-63.0,5b1dfad43522660001b4510d,5b1dfad43522660001b4510d_20240212,,,,
4750,0,html-button-response,64,2155612,0.0-64.0,5b1dfad43522660001b4510d,5b1dfad43522660001b4510d_20240212,,,7,20
1922,0,html-button-response,65,2158048,0.0-65.0,5b1dfad43522660001b4510d,5b1dfad43522660001b4510d_20240212,,,9,31
1610,0,html-button-response,66,2160161,0.0-66.0,5b1dfad43522660001b4510d,5b1dfad43522660001b4510d_20240212,,,9,132
1663,0,html-button-response,67,2162329,0.0-67.0,5b1dfad43522660001b4510d,5b1dfad43522660001b4510d_20240212,,,9,88
1753,0,html-button-response,68,2164595,0.0-68.0,5b1dfad43522660001b4510d,5b1dfad43522660001b4510d_20240212,,,9,82
5831,0,html-button-response,69,2170940,0.0-69.0,5b1dfad43522660001b4510d,5b1dfad43522660001b4510d_20240212,,,6,34
14274,0,html-button-response,70,2185718,0.0-70.0,5b1dfad43522660001b4510d,5b1dfad43522660001b4510d_20240212,,,9,85
2049,0,html-button-response,71,2188273,0.0-71.0,5b1dfad43522660001b4510d,5b1dfad43522660001b4510d_20240212,,,8,21
1657,0,html-button-response,72,2190445,0.0-72.0,5b1dfad43522660001b4510d,5b1dfad43522660001b4510d_20240212,,,9,145
1584,0,html-button-response,73,2192533,0.0-73.0,5b1dfad43522660001b4510d,5b1dfad43522660001b4510d_20240212,,,9,154
1591,0,html-button-response,74,2194629,0.0-74.0,5b1dfad43522660001b4510d,5b1dfad43522660001b4510d_20240212,,,9,89
1845,0,html-button-response,75,2196976,0.0-75.0,5b1dfad43522660001b4510d,5b1dfad43522660001b4510d_20240212,,,9,77
1891,0,html-button-response,76,2199369,0.0-76.0,5b1dfad43522660001b4510d,5b1dfad43522660001b4510d_20240212,,,8,178
2013,0,html-button-response,77,2201898,0.0-77.0,5b1dfad43522660001b4510d,5b1dfad43522660001b4510d_20240212,,,5,83
1627,0,html-button-response,78,2204027,0.0-78.0,5b1dfad43522660001b4510d,5b1dfad43522660001b4510d_20240212,,,9,73
1419,0,html-button-response,79,2205951,0.0-79.0,5b1dfad43522660001b4510d,5b1dfad43522660001b4510d_20240212,,,9,152
1511,0,html-button-response,80,2207972,0.0-80.0,5b1dfad43522660001b4510d,5b1dfad43522660001b4510d_20240212,,,9,142
1646,0,html-button-response,81,2210132,0.0-81.0,5b1dfad43522660001b4510d,5b1dfad43522660001b4510d_20240212,,,9,150
1527,0,html-button-response,82,2212165,0.0-82.0,5b1dfad43522660001b4510d,5b1dfad43522660001b4510d_20240212,,,9,135
1432,0,html-button-response,83,2214103,0.0-83.0,5b1dfad43522660001b4510d,5b1dfad43522660001b4510d_20240212,,,9,138
1764,0,html-button-response,84,2216372,0.0-84.0,5b1dfad43522660001b4510d,5b1dfad43522660001b4510d_20240212,,,9,136
2348,0,html-button-response,85,2219234,0.0-85.0,5b1dfad43522660001b4510d,5b1dfad43522660001b4510d_20240212,,,7,30
9829,0,html-button-response,86,2229573,0.0-86.0,5b1dfad43522660001b4510d,5b1dfad43522660001b4510d_20240212,,,8,86
1646,0,html-button-response,87,2231728,0.0-87.0,5b1dfad43522660001b4510d,5b1dfad43522660001b4510d_20240212,,,9,141
1520,0,html-button-response,88,2233750,0.0-88.0,5b1dfad43522660001b4510d,5b1dfad43522660001b4510d_20240212,,,9,79
2122,0,html-button-response,89,2236375,0.0-89.0,5b1dfad43522660001b4510d,5b1dfad43522660001b4510d_20240212,,,7,148
2148,0,html-button-response,90,2239038,0.0-90.0,5b1dfad43522660001b4510d,5b1dfad43522660001b4510d_20240212,,,5,24
1546,0,html-button-response,91,2241089,0.0-91.0,5b1dfad43522660001b4510d,5b1dfad43522660001b4510d_20240212,,,7,90
1550,0,html-button-response,92,2243142,0.0-92.0,5b1dfad43522660001b4510d,5b1dfad43522660001b4510d_20240212,,,8,87
1738,0,html-button-response,93,2245383,0.0-93.0,5b1dfad43522660001b4510d,5b1dfad43522660001b4510d_20240212,,,3,32
1970,0,html-button-response,94,2247854,0.0-94.0,5b1dfad43522660001b4510d,5b1dfad43522660001b4510d_20240212,,,2,27
2140,0,html-button-response,95,2250497,0.0-95.0,5b1dfad43522660001b4510d,5b1dfad43522660001b4510d_20240212,,,8,143
23338,0,html-button-response,96,2274336,0.0-96.0,5b1dfad43522660001b4510d,5b1dfad43522660001b4510d_20240212,,,7,29
1761,0,html-button-response,97,2276601,0.0-97.0,5b1dfad43522660001b4510d,5b1dfad43522660001b4510d_20240212,,,9,76
1830,0,html-button-response,98,2278932,0.0-98.0,5b1dfad43522660001b4510d,5b1dfad43522660001b4510d_20240212,,,4,25
1925,0,html-button-response,99,2281360,0.0-99.0,5b1dfad43522660001b4510d,5b1dfad43522660001b4510d_20240212,,,8,140
1728,0,html-button-response,100,2283589,0.0-100.0,5b1dfad43522660001b4510d,5b1dfad43522660001b4510d_20240212,,,9,179
2429,0,html-button-response,101,2286529,0.0-101.0,5b1dfad43522660001b4510d,5b1dfad43522660001b4510d_20240212,,,8,28
1832,0,html-button-response,102,2288866,0.0-102.0,5b1dfad43522660001b4510d,5b1dfad43522660001b4510d_20240212,,,9,137
1860,0,html-button-response,103,2291228,0.0-103.0,5b1dfad43522660001b4510d,5b1dfad43522660001b4510d_20240212,,,6,23
1314,0,html-button-response,104,2293043,0.0-104.0,5b1dfad43522660001b4510d,5b1dfad43522660001b4510d_20240212,,,7,80
1297,0,html-button-response,105,2294841,0.0-105.0,5b1dfad43522660001b4510d,5b1dfad43522660001b4510d_20240212,,,9,81
1149,0,html-button-response,106,2296499,0.0-106.0,5b1dfad43522660001b4510d,5b1dfad43522660001b4510d_20240212,,,9,84
1792,0,html-button-response,107,2298793,0.0-107.0,5b1dfad43522660001b4510d,5b1dfad43522660001b4510d_20240212,,,3,33
1526,0,html-button-response,108,2300820,0.0-108.0,5b1dfad43522660001b4510d,5b1dfad43522660001b4510d_20240212,,,8,180
2968,0,html-button-response,109,2304298,0.0-109.0,5b1dfad43522660001b4510d,5b1dfad43522660001b4510d_20240212,,,8,133
1285,0,html-button-response,110,2306099,0.0-110.0,5b1dfad43522660001b4510d,5b1dfad43522660001b4510d_20240212,,,9,147
1332,0,html-button-response,111,2307937,0.0-111.0,5b1dfad43522660001b4510d,5b1dfad43522660001b4510d_20240212,,,9,75
1420,0,html-button-response,112,2309861,0.0-112.0,5b1dfad43522660001b4510d,5b1dfad43522660001b4510d_20240212,,,8,144
1537,0,html-button-response,113,2311905,0.0-113.0,5b1dfad43522660001b4510d,5b1dfad43522660001b4510d_20240212,,,5,35
1567,0,html-button-response,114,2313978,0.0-114.0,5b1dfad43522660001b4510d,5b1dfad43522660001b4510d_20240212,,,9,139
1323,0,html-button-response,115,2315807,0.0-115.0,5b1dfad43522660001b4510d,5b1dfad43522660001b4510d_20240212,,,9,146
1681,0,html-button-response,116,2317993,0.0-116.0,5b1dfad43522660001b4510d,5b1dfad43522660001b4510d_20240212,,,9,151
4168,0,html-button-response,117,2322664,0.0-117.0,5b1dfad43522660001b4510d,5b1dfad43522660001b4510d_20240212,,,6,22
2014,0,html-button-response,118,2325179,0.0-118.0,5b1dfad43522660001b4510d,5b1dfad43522660001b4510d_20240212,,,4,36
1957,0,html-button-response,119,2327643,0.0-119.0,5b1dfad43522660001b4510d,5b1dfad43522660001b4510d_20240212,,,6,26
1430,0,html-button-response,120,2329580,0.0-120.0,5b1dfad43522660001b4510d,5b1dfad43522660001b4510d_20240212,,,8,134
1578,0,html-button-response,121,2331666,0.0-121.0,5b1dfad43522660001b4510d,5b1dfad43522660001b4510d_20240212,,,9,149
1238,0,html-button-response,122,2333406,0.0-122.0,5b1dfad43522660001b4510d,5b1dfad43522660001b4510d_20240212,,,9,153
1445,0,html-button-response,123,2335354,0.0-123.0,5b1dfad43522660001b4510d,5b1dfad43522660001b4510d_20240212,,,9,74
2122,0,html-button-response,124,2337989,0.0-124.0,5b1dfad43522660001b4510d,5b1dfad43522660001b4510d_20240212,,,2,19
1767,0,html-button-response,125,2340257,0.0-125.0,5b1dfad43522660001b4510d,5b1dfad43522660001b4510d_20240212,,,8,78
780,0,html-button-response,126,2341539,0.0-126.0,5b1dfad43522660001b4510d,5b1dfad43522660001b4510d_20240212,,,,
3876,0,html-button-response,127,2345917,0.0-127.0,5b1dfad43522660001b4510d,5b1dfad43522660001b4510d_20240212,,,8,104
1775,0,html-button-response,128,2348195,0.0-128.0,5b1dfad43522660001b4510d,5b1dfad43522660001b4510d_20240212,,,8,102
1667,0,html-button-response,129,2350366,0.0-129.0,5b1dfad43522660001b4510d,5b1dfad43522660001b4510d_20240212,,,7,161
1988,0,html-button-response,130,2352861,0.0-130.0,5b1dfad43522660001b4510d,5b1dfad43522660001b4510d_20240212,,,6,48
2901,0,html-button-response,131,2356272,0.0-131.0,5b1dfad43522660001b4510d,5b1dfad43522660001b4510d_20240212,,,4,45
1916,0,html-button-response,132,2358692,0.0-132.0,5b1dfad43522660001b4510d,5b1dfad43522660001b4510d_20240212,,,6,169
1204,0,html-button-response,133,2360399,0.0-133.0,5b1dfad43522660001b4510d,5b1dfad43522660001b4510d_20240212,,,6,166
2361,0,html-button-response,134,2363262,0.0-134.0,5b1dfad43522660001b4510d,5b1dfad43522660001b4510d_20240212,,,8,170
1333,0,html-button-response,135,2365096,0.0-135.0,5b1dfad43522660001b4510d,5b1dfad43522660001b4510d_20240212,,,9,107
1747,0,html-button-response,136,2367358,0.0-136.0,5b1dfad43522660001b4510d,5b1dfad43522660001b4510d_20240212,,,8,101
1589,0,html-button-response,137,2369455,0.0-137.0,5b1dfad43522660001b4510d,5b1dfad43522660001b4510d_20240212,,,9,98
1519,0,html-button-response,138,2371480,0.0-138.0,5b1dfad43522660001b4510d,5b1dfad43522660001b4510d_20240212,,,5,162
1672,0,html-button-response,139,2373654,0.0-139.0,5b1dfad43522660001b4510d,5b1dfad43522660001b4510d_20240212,,,4,158
1621,0,html-button-response,140,2375780,0.0-140.0,5b1dfad43522660001b4510d,5b1dfad43522660001b4510d_20240212,,,6,171
1368,0,html-button-response,141,2377654,0.0-141.0,5b1dfad43522660001b4510d,5b1dfad43522660001b4510d_20240212,,,6,38
1871,0,html-button-response,142,2380028,0.0-142.0,5b1dfad43522660001b4510d,5b1dfad43522660001b4510d_20240212,,,3,42
1755,0,html-button-response,143,2382287,0.0-143.0,5b1dfad43522660001b4510d,5b1dfad43522660001b4510d_20240212,,,8,97
1643,0,html-button-response,144,2384446,0.0-144.0,5b1dfad43522660001b4510d,5b1dfad43522660001b4510d_20240212,,,4,165
2139,0,html-button-response,145,2387088,0.0-145.0,5b1dfad43522660001b4510d,5b1dfad43522660001b4510d_20240212,,,2,183
3331,0,html-button-response,146,2390921,0.0-146.0,5b1dfad43522660001b4510d,5b1dfad43522660001b4510d_20240212,,,1,163
2078,0,html-button-response,147,2393507,0.0-147.0,5b1dfad43522660001b4510d,5b1dfad43522660001b4510d_20240212,,,9,94
2500,0,html-button-response,148,2396520,0.0-148.0,5b1dfad43522660001b4510d,5b1dfad43522660001b4510d_20240212,,,2,37
1877,0,html-button-response,149,2398904,0.0-149.0,5b1dfad43522660001b4510d,5b1dfad43522660001b4510d_20240212,,,4,177
2021,0,html-button-response,150,2401434,0.0-150.0,5b1dfad43522660001b4510d,5b1dfad43522660001b4510d_20240212,,,2,39
1700,0,html-button-response,151,2403638,0.0-151.0,5b1dfad43522660001b4510d,5b1dfad43522660001b4510d_20240212,,,3,46
2035,0,html-button-response,152,2406179,0.0-152.0,5b1dfad43522660001b4510d,5b1dfad43522660001b4510d_20240212,,,6,105
2429,0,html-button-response,153,2409118,0.0-153.0,5b1dfad43522660001b4510d,5b1dfad43522660001b4510d_20240212,,,4,172
1887,0,html-button-response,154,2411508,0.0-154.0,5b1dfad43522660001b4510d,5b1dfad43522660001b4510d_20240212,,,6,164
2249,0,html-button-response,155,2414263,0.0-155.0,5b1dfad43522660001b4510d,5b1dfad43522660001b4510d_20240212,,,1,53
1448,0,html-button-response,156,2416214,0.0-156.0,5b1dfad43522660001b4510d,5b1dfad43522660001b4510d_20240212,,,1,51
1675,0,html-button-response,157,2418395,0.0-157.0,5b1dfad43522660001b4510d,5b1dfad43522660001b4510d_20240212,,,2,50
1646,0,html-button-response,158,2420544,0.0-158.0,5b1dfad43522660001b4510d,5b1dfad43522660001b4510d_20240212,,,7,92
1724,0,html-button-response,159,2422772,0.0-159.0,5b1dfad43522660001b4510d,5b1dfad43522660001b4510d_20240212,,,3,49
1876,0,html-button-response,160,2425160,0.0-160.0,5b1dfad43522660001b4510d,5b1dfad43522660001b4510d_20240212,,,1,54
1900,0,html-button-response,161,2427561,0.0-161.0,5b1dfad43522660001b4510d,5b1dfad43522660001b4510d_20240212,,,5,160
2054,0,html-button-response,162,2430124,0.0-162.0,5b1dfad43522660001b4510d,5b1dfad43522660001b4510d_20240212,,,1,91
1936,0,html-button-response,163,2432569,0.0-163.0,5b1dfad43522660001b4510d,5b1dfad43522660001b4510d_20240212,,,6,96
1665,0,html-button-response,164,2434737,0.0-164.0,5b1dfad43522660001b4510d,5b1dfad43522660001b4510d_20240212,,,2,168
2039,0,html-button-response,165,2437284,0.0-165.0,5b1dfad43522660001b4510d,5b1dfad43522660001b4510d_20240212,,,3,106
2201,0,html-button-response,166,2439986,0.0-166.0,5b1dfad43522660001b4510d,5b1dfad43522660001b4510d_20240212,,,1,181
2933,0,html-button-response,167,2443422,0.0-167.0,5b1dfad43522660001b4510d,5b1dfad43522660001b4510d_20240212,,,6,156
1682,0,html-button-response,168,2445611,0.0-168.0,5b1dfad43522660001b4510d,5b1dfad43522660001b4510d_20240212,,,6,167
1279,0,html-button-response,169,2447391,0.0-169.0,5b1dfad43522660001b4510d,5b1dfad43522660001b4510d_20240212,,,6,95
1991,0,html-button-response,170,2449887,0.0-170.0,5b1dfad43522660001b4510d,5b1dfad43522660001b4510d_20240212,,,1,174
1955,0,html-button-response,171,2452353,0.0-171.0,5b1dfad43522660001b4510d,5b1dfad43522660001b4510d_20240212,,,1,182
2512,0,html-button-response,172,2455375,0.0-172.0,5b1dfad43522660001b4510d,5b1dfad43522660001b4510d_20240212,,,1,108
1709,0,html-button-response,173,2457591,0.0-173.0,5b1dfad43522660001b4510d,5b1dfad43522660001b4510d_20240212,,,2,173
1635,0,html-button-response,174,2459730,0.0-174.0,5b1dfad43522660001b4510d,5b1dfad43522660001b4510d_20240212,,,1,155
1689,0,html-button-response,175,2461925,0.0-175.0,5b1dfad43522660001b4510d,5b1dfad43522660001b4510d_20240212,,,2,157
2142,0,html-button-response,176,2464570,0.0-176.0,5b1dfad43522660001b4510d,5b1dfad43522660001b4510d_20240212,,,1,47
1696,0,html-button-response,177,2466777,0.0-177.0,5b1dfad43522660001b4510d,5b1dfad43522660001b4510d_20240212,,,2,43
2361,0,html-button-response,178,2469651,0.0-178.0,5b1dfad43522660001b4510d,5b1dfad43522660001b4510d_20240212,,,9,100
3321,0,html-button-response,179,2473484,0.0-179.0,5b1dfad43522660001b4510d,5b1dfad43522660001b4510d_20240212,,,7,159
4943,0,html-button-response,180,2478931,0.0-180.0,5b1dfad43522660001b4510d,5b1dfad43522660001b4510d_20240212,,,1,52
3517,0,html-button-response,181,2482954,0.0-181.0,5b1dfad43522660001b4510d,5b1dfad43522660001b4510d_20240212,,,1,99
4516,0,html-button-response,182,2487982,0.0-182.0,5b1dfad43522660001b4510d,5b1dfad43522660001b4510d_20240212,,,1,41
13291,0,html-button-response,183,2501774,0.0-183.0,5b1dfad43522660001b4510d,5b1dfad43522660001b4510d_20240212,,,9,103
4278,0,html-button-response,184,2506559,0.0-184.0,5b1dfad43522660001b4510d,5b1dfad43522660001b4510d_20240212,,,1,40
2303,0,html-button-response,185,2509377,0.0-185.0,5b1dfad43522660001b4510d,5b1dfad43522660001b4510d_20240212,,,1,44
2538,0,html-button-response,186,2512423,0.0-186.0,5b1dfad43522660001b4510d,5b1dfad43522660001b4510d_20240212,,,1,175
3450,0,html-button-response,187,2516378,0.0-187.0,5b1dfad43522660001b4510d,5b1dfad43522660001b4510d_20240212,,,5,176
2291,0,html-button-response,188,2519183,0.0-188.0,5b1dfad43522660001b4510d,5b1dfad43522660001b4510d_20240212,,,1,93
1223,0,html-button-response,189,2520909,0.0-189.0,5b1dfad43522660001b4510d,5b1dfad43522660001b4510d_20240212,,"Thank you. You have reached the end. 
                       <br>Click the button below to reveal your compensation.
                        <br><br>",,