"rt","response","trial_type","trial_index","time_elapsed","internal_node_id","part_ID","ID_DATE","screen_id","stimulus","rating","img_id"
"76813","0","html-button-response","0","76816","0.0-0.0","6175e05636b79082f8d345c5","6175e05636b79082f8d345c5_20240212","","","",""
"4613","[object Object]","survey-html-form","1","81933","0.0-1.0","6175e05636b79082f8d345c5","6175e05636b79082f8d345c5_20240212","prolific_id_page","","",""
"21860","0","html-button-response","2","103795","0.0-2.0","6175e05636b79082f8d345c5","6175e05636b79082f8d345c5_20240212","","","",""
"1061","0","html-button-response","3","105369","0.0-3.0","6175e05636b79082f8d345c5","6175e05636b79082f8d345c5_20240212","","
<div>
Great! You will now go on to rate the faces.
<br><br>
</div>
","",""
"4499","0","html-button-response","4","110379","0.0-4.0","6175e05636b79082f8d345c5","6175e05636b79082f8d345c5_20240212","","","8","149"
"3903","0","html-button-response","5","114797","0.0-5.0","6175e05636b79082f8d345c5","6175e05636b79082f8d345c5_20240212","","","8","150"
"3249","0","html-button-response","6","118551","0.0-6.0","6175e05636b79082f8d345c5","6175e05636b79082f8d345c5_20240212","","","8","144"
"6827","0","html-button-response","7","125891","0.0-7.0","6175e05636b79082f8d345c5","6175e05636b79082f8d345c5_20240212","","","9","83"
"5263","0","html-button-response","8","131657","0.0-8.0","6175e05636b79082f8d345c5","6175e05636b79082f8d345c5_20240212","","","8","84"
"2450","0","html-button-response","9","134618","0.0-9.0","6175e05636b79082f8d345c5","6175e05636b79082f8d345c5_20240212","","","8","143"
"3607","0","html-button-response","10","138740","0.0-10.0","6175e05636b79082f8d345c5","6175e05636b79082f8d345c5_20240212","","","9","88"
"4331","0","html-button-response","11","143578","0.0-11.0","6175e05636b79082f8d345c5","6175e05636b79082f8d345c5_20240212","","","8","73"
"2541","0","html-button-response","12","146624","0.0-12.0","6175e05636b79082f8d345c5","6175e05636b79082f8d345c5_20240212","","","8","74"
"5195","0","html-button-response","13","152328","0.0-13.0","6175e05636b79082f8d345c5","6175e05636b79082f8d345c5_20240212","","","4","35"
"2463","0","html-button-response","14","155302","0.0-14.0","6175e05636b79082f8d345c5","6175e05636b79082f8d345c5_20240212","","","8","81"
"3775","0","html-button-response","15","159582","0.0-15.0","6175e05636b79082f8d345c5","6175e05636b79082f8d345c5_20240212","","","8","89"
"4481","0","html-button-response","16","164576","0.0-16.0","6175e05636b79082f8d345c5","6175e05636b79082f8d345c5_20240212","","","3","28"
"5221","0","html-button-response","17","170312","0.0-17.0","6175e05636b79082f8d345c5","6175e05636b79082f8d345c5_20240212","","","3","36"
"3390","0","html-button-response","18","174208","0.0-18.0","6175e05636b79082f8d345c5","6175e05636b79082f8d345c5_20240212","","","7","180"
"2441","0","html-button-response","19","177152","0.0-19.0","6175e05636b79082f8d345c5","6175e05636b79082f8d345c5_20240212","","","7","137"
"2853","0","html-button-response","20","180510","0.0-20.0","6175e05636b79082f8d345c5","6175e05636b79082f8d345c5_20240212","","","8","139"
"3007","0","html-button-response","21","184024","0.0-21.0","6175e05636b79082f8d345c5","6175e05636b79082f8d345c5_20240212","","","3","19"
"2694","0","html-button-response","22","187235","0.0-22.0","6175e05636b79082f8d345c5","6175e05636b79082f8d345c5_20240212","","","9","78"
"2413","0","html-button-response","23","190156","0.0-23.0","6175e05636b79082f8d345c5","6175e05636b79082f8d345c5_20240212","","","8","135"
"5241","0","html-button-response","24","195914","0.0-24.0","6175e05636b79082f8d345c5","6175e05636b79082f8d345c5_20240212","","","2","21"
"3357","0","html-button-response","25","199786","0.0-25.0","6175e05636b79082f8d345c5","6175e05636b79082f8d345c5_20240212","","","5","30"
"2278","0","html-button-response","26","202568","0.0-26.0","6175e05636b79082f8d345c5","6175e05636b79082f8d345c5_20240212","","","8","132"
"2421","0","html-button-response","27","205490","0.0-27.0","6175e05636b79082f8d345c5","6175e05636b79082f8d345c5_20240212","","","8","146"
"2660","0","html-button-response","28","208660","0.0-28.0","6175e05636b79082f8d345c5","6175e05636b79082f8d345c5_20240212","","","9","76"
"2951","0","html-button-response","29","212112","0.0-29.0","6175e05636b79082f8d345c5","6175e05636b79082f8d345c5_20240212","","","8","154"
"2277","0","html-button-response","30","214894","0.0-30.0","6175e05636b79082f8d345c5","6175e05636b79082f8d345c5_20240212","","","9","85"
"2999","0","html-button-response","31","218408","0.0-31.0","6175e05636b79082f8d345c5","6175e05636b79082f8d345c5_20240212","","","9","86"
"3309","0","html-button-response","32","222226","0.0-32.0","6175e05636b79082f8d345c5","6175e05636b79082f8d345c5_20240212","","","2","33"
"3693","0","html-button-response","33","226426","0.0-33.0","6175e05636b79082f8d345c5","6175e05636b79082f8d345c5_20240212","","","6","23"
"3143","0","html-button-response","34","230072","0.0-34.0","6175e05636b79082f8d345c5","6175e05636b79082f8d345c5_20240212","","","4","29"
"2376","0","html-button-response","35","232962","0.0-35.0","6175e05636b79082f8d345c5","6175e05636b79082f8d345c5_20240212","","","9","87"
"2146","0","html-button-response","36","235620","0.0-36.0","6175e05636b79082f8d345c5","6175e05636b79082f8d345c5_20240212","","","9","79"
"3291","0","html-button-response","37","239414","0.0-37.0","6175e05636b79082f8d345c5","6175e05636b79082f8d345c5_20240212","","","1","20"
"3805","0","html-button-response","38","243730","0.0-38.0","6175e05636b79082f8d345c5","6175e05636b79082f8d345c5_20240212","","","3","26"
"2194","0","html-button-response","39","246434","0.0-39.0","6175e05636b79082f8d345c5","6175e05636b79082f8d345c5_20240212","","","8","141"
"3495","0","html-button-response","40","250438","0.0-40.0","6175e05636b79082f8d345c5","6175e05636b79082f8d345c5_20240212","","","6","24"
"2261","0","html-button-response","41","253213","0.0-41.0","6175e05636b79082f8d345c5","6175e05636b79082f8d345c5_20240212","","","8","153"
"2464","0","html-button-response","42","256182","0.0-42.0","6175e05636b79082f8d345c5","6175e05636b79082f8d345c5_20240212","","","3","27"
"2443","0","html-button-response","43","259135","0.0-43.0","6175e05636b79082f8d345c5","6175e05636b79082f8d345c5_20240212","","","9","77"
"2489","0","html-button-response","44","262127","0.0-44.0","6175e05636b79082f8d345c5","6175e05636b79082f8d345c5_20240212","","","8","145"
"2526","0","html-button-response","45","265156","0.0-45.0","6175e05636b79082f8d345c5","6175e05636b79082f8d345c5_20240212","","","9","82"
"2136","0","html-button-response","46","267806","0.0-46.0","6175e05636b79082f8d345c5","6175e05636b79082f8d345c5_20240212","","","8","136"
"2046","0","html-button-response","47","270362","0.0-47.0","6175e05636b79082f8d345c5","6175e05636b79082f8d345c5_20240212","","","8","134"
"4127","0","html-button-response","48","274997","0.0-48.0","6175e05636b79082f8d345c5","6175e05636b79082f8d345c5_20240212","","","1","34"
"2161","0","html-button-response","49","277671","0.0-49.0","6175e05636b79082f8d345c5","6175e05636b79082f8d345c5_20240212","","","8","140"
"2557","0","html-button-response","50","280733","0.0-50.0","6175e05636b79082f8d345c5","6175e05636b79082f8d345c5_20240212","","","3","25"
"2083","0","html-button-response","51","283327","0.0-51.0","6175e05636b79082f8d345c5","6175e05636b79082f8d345c5_20240212","","","8","152"
"2001","0","html-button-response","52","285834","0.0-52.0","6175e05636b79082f8d345c5","6175e05636b79082f8d345c5_20240212","","","8","138"
"2234","0","html-button-response","53","288571","0.0-53.0","6175e05636b79082f8d345c5","6175e05636b79082f8d345c5_20240212","","","9","75"
"1978","0","html-button-response","54","291062","0.0-54.0","6175e05636b79082f8d345c5","6175e05636b79082f8d345c5_20240212","","","8","151"
"3626","0","html-button-response","55","295200","0.0-55.0","6175e05636b79082f8d345c5","6175e05636b79082f8d345c5_20240212","","","1","22"
"2058","0","html-button-response","56","297764","0.0-56.0","6175e05636b79082f8d345c5","6175e05636b79082f8d345c5_20240212","","","8","148"
"2007","0","html-button-response","57","300281","0.0-57.0","6175e05636b79082f8d345c5","6175e05636b79082f8d345c5_20240212","","","8","133"
"4546","0","html-button-response","58","305344","0.0-58.0","6175e05636b79082f8d345c5","6175e05636b79082f8d345c5_20240212","","","5","31"
"2154","0","html-button-response","59","308008","0.0-59.0","6175e05636b79082f8d345c5","6175e05636b79082f8d345c5_20240212","","","9","80"
"3039","0","html-button-response","60","311563","0.0-60.0","6175e05636b79082f8d345c5","6175e05636b79082f8d345c5_20240212","","","8","178"
"1897","0","html-button-response","61","313977","0.0-61.0","6175e05636b79082f8d345c5","6175e05636b79082f8d345c5_20240212","","","8","147"
"1930","0","html-button-response","62","316416","0.0-62.0","6175e05636b79082f8d345c5","6175e05636b79082f8d345c5_20240212","","","8","142"
"2006","0","html-button-response","63","318933","0.0-63.0","6175e05636b79082f8d345c5","6175e05636b79082f8d345c5_20240212","","","9","90"
"3222","0","html-button-response","64","322664","0.0-64.0","6175e05636b79082f8d345c5","6175e05636b79082f8d345c5_20240212","","","7","179"
"3762","0","html-button-response","65","326942","0.0-65.0","6175e05636b79082f8d345c5","6175e05636b79082f8d345c5_20240212","","","2","32"
"1455","0","html-button-response","66","328913","0.0-66.0","6175e05636b79082f8d345c5","6175e05636b79082f8d345c5_20240212","","","",""
"8331","0","html-button-response","67","337749","0.0-67.0","6175e05636b79082f8d345c5","6175e05636b79082f8d345c5_20240212","","","7","46"
"2669","0","html-button-response","68","340927","0.0-68.0","6175e05636b79082f8d345c5","6175e05636b79082f8d345c5_20240212","","","8","37"
"2334","0","html-button-response","69","343779","0.0-69.0","6175e05636b79082f8d345c5","6175e05636b79082f8d345c5_20240212","","","7","161"
"2744","0","html-button-response","70","347035","0.0-70.0","6175e05636b79082f8d345c5","6175e05636b79082f8d345c5_20240212","","","7","41"
"2201","0","html-button-response","71","349738","0.0-71.0","6175e05636b79082f8d345c5","6175e05636b79082f8d345c5_20240212","","","6","49"
"2487","0","html-button-response","72","352731","0.0-72.0","6175e05636b79082f8d345c5","6175e05636b79082f8d345c5_20240212","","","8","156"
"2480","0","html-button-response","73","355721","0.0-73.0","6175e05636b79082f8d345c5","6175e05636b79082f8d345c5_20240212","","","8","102"
"2110","0","html-button-response","74","358338","0.0-74.0","6175e05636b79082f8d345c5","6175e05636b79082f8d345c5_20240212","","","8","100"
"2569","0","html-button-response","75","361417","0.0-75.0","6175e05636b79082f8d345c5","6175e05636b79082f8d345c5_20240212","","","5","54"
"3628","0","html-button-response","76","365553","0.0-76.0","6175e05636b79082f8d345c5","6175e05636b79082f8d345c5_20240212","","","6","108"
"4256","0","html-button-response","77","370313","0.0-77.0","6175e05636b79082f8d345c5","6175e05636b79082f8d345c5_20240212","","","8","99"
"2236","0","html-button-response","78","373056","0.0-78.0","6175e05636b79082f8d345c5","6175e05636b79082f8d345c5_20240212","","","6","157"
"1882","0","html-button-response","79","375448","0.0-79.0","6175e05636b79082f8d345c5","6175e05636b79082f8d345c5_20240212","","","7","101"
"3474","0","html-button-response","80","379428","0.0-80.0","6175e05636b79082f8d345c5","6175e05636b79082f8d345c5_20240212","","","6","95"
"2664","0","html-button-response","81","382608","0.0-81.0","6175e05636b79082f8d345c5","6175e05636b79082f8d345c5_20240212","","","5","48"
"1765","0","html-button-response","82","384890","0.0-82.0","6175e05636b79082f8d345c5","6175e05636b79082f8d345c5_20240212","","","5","38"
"3800","0","html-button-response","83","389206","0.0-83.0","6175e05636b79082f8d345c5","6175e05636b79082f8d345c5_20240212","","","6","164"
"3508","0","html-button-response","84","393218","0.0-84.0","6175e05636b79082f8d345c5","6175e05636b79082f8d345c5_20240212","","","6","50"
"2060","0","html-button-response","85","395782","0.0-85.0","6175e05636b79082f8d345c5","6175e05636b79082f8d345c5_20240212","","","7","106"
"1996","0","html-button-response","86","398282","0.0-86.0","6175e05636b79082f8d345c5","6175e05636b79082f8d345c5_20240212","","","7","173"
"2287","0","html-button-response","87","401081","0.0-87.0","6175e05636b79082f8d345c5","6175e05636b79082f8d345c5_20240212","","","7","104"
"3835","0","html-button-response","88","405427","0.0-88.0","6175e05636b79082f8d345c5","6175e05636b79082f8d345c5_20240212","","","8","103"
"2058","0","html-button-response","89","407998","0.0-89.0","6175e05636b79082f8d345c5","6175e05636b79082f8d345c5_20240212","","","7","170"
"3030","0","html-button-response","90","411536","0.0-90.0","6175e05636b79082f8d345c5","6175e05636b79082f8d345c5_20240212","","","8","94"
"2488","0","html-button-response","91","414534","0.0-91.0","6175e05636b79082f8d345c5","6175e05636b79082f8d345c5_20240212","","","8","92"
"2613","0","html-button-response","92","417650","0.0-92.0","6175e05636b79082f8d345c5","6175e05636b79082f8d345c5_20240212","","","4","42"
"2310","0","html-button-response","93","420470","0.0-93.0","6175e05636b79082f8d345c5","6175e05636b79082f8d345c5_20240212","","","3","51"
"2756","0","html-button-response","94","423745","0.0-94.0","6175e05636b79082f8d345c5","6175e05636b79082f8d345c5_20240212","","","5","166"
"2654","0","html-button-response","95","426914","0.0-95.0","6175e05636b79082f8d345c5","6175e05636b79082f8d345c5_20240212","","","6","155"
"2035","0","html-button-response","96","429454","0.0-96.0","6175e05636b79082f8d345c5","6175e05636b79082f8d345c5_20240212","","","6","175"
"2749","0","html-button-response","97","432710","0.0-97.0","6175e05636b79082f8d345c5","6175e05636b79082f8d345c5_20240212","","","6","169"
"2040","0","html-button-response","98","435266","0.0-98.0","6175e05636b79082f8d345c5","6175e05636b79082f8d345c5_20240212","","","8","98"
"2442","0","html-button-response","99","438210","0.0-99.0","6175e05636b79082f8d345c5","6175e05636b79082f8d345c5_20240212","","","3","39"
"2248","0","html-button-response","100","440976","0.0-100.0","6175e05636b79082f8d345c5","6175e05636b79082f8d345c5_20240212","","","5","159"
"2880","0","html-button-response","101","444359","0.0-101.0","6175e05636b79082f8d345c5","6175e05636b79082f8d345c5_20240212","","","8","107"
"4109","0","html-button-response","102","448978","0.0-102.0","6175e05636b79082f8d345c5","6175e05636b79082f8d345c5_20240212","","","4","52"
"3380","0","html-button-response","103","452872","0.0-103.0","6175e05636b79082f8d345c5","6175e05636b79082f8d345c5_20240212","","","3","91"
"2219","0","html-button-response","104","455601","0.0-104.0","6175e05636b79082f8d345c5","6175e05636b79082f8d345c5_20240212","","","6","158"
"2199","0","html-button-response","105","458310","0.0-105.0","6175e05636b79082f8d345c5","6175e05636b79082f8d345c5_20240212","","","5","43"
"2244","0","html-button-response","106","461068","0.0-106.0","6175e05636b79082f8d345c5","6175e05636b79082f8d345c5_20240212","","","5","168"
"3804","0","html-button-response","107","465377","0.0-107.0","6175e05636b79082f8d345c5","6175e05636b79082f8d345c5_20240212","","","4","40"
"2318","0","html-button-response","108","468206","0.0-108.0","6175e05636b79082f8d345c5","6175e05636b79082f8d345c5_20240212","","","6","160"
"2836","0","html-button-response","109","471556","0.0-109.0","6175e05636b79082f8d345c5","6175e05636b79082f8d345c5_20240212","","","4","181"
"2204","0","html-button-response","110","474266","0.0-110.0","6175e05636b79082f8d345c5","6175e05636b79082f8d345c5_20240212","","","6","93"
"2242","0","html-button-response","111","477024","0.0-111.0","6175e05636b79082f8d345c5","6175e05636b79082f8d345c5_20240212","","","5","165"
"2586","0","html-button-response","112","480124","0.0-112.0","6175e05636b79082f8d345c5","6175e05636b79082f8d345c5_20240212","","","7","105"
"2340","0","html-button-response","113","482976","0.0-113.0","6175e05636b79082f8d345c5","6175e05636b79082f8d345c5_20240212","","","5","44"
"2551","0","html-button-response","114","486046","0.0-114.0","6175e05636b79082f8d345c5","6175e05636b79082f8d345c5_20240212","","","4","174"
"2157","0","html-button-response","115","488718","0.0-115.0","6175e05636b79082f8d345c5","6175e05636b79082f8d345c5_20240212","","","5","167"
"3184","0","html-button-response","116","492412","0.0-116.0","6175e05636b79082f8d345c5","6175e05636b79082f8d345c5_20240212","","","7","177"
"3644","0","html-button-response","117","496564","0.0-117.0","6175e05636b79082f8d345c5","6175e05636b79082f8d345c5_20240212","","","2","47"
"2518","0","html-button-response","118","499588","0.0-118.0","6175e05636b79082f8d345c5","6175e05636b79082f8d345c5_20240212","","","1","53"
"2963","0","html-button-response","119","503053","0.0-119.0","6175e05636b79082f8d345c5","6175e05636b79082f8d345c5_20240212","","","5","172"
"2284","0","html-button-response","120","505850","0.0-120.0","6175e05636b79082f8d345c5","6175e05636b79082f8d345c5_20240212","","","8","97"
"4769","0","html-button-response","121","511123","0.0-121.0","6175e05636b79082f8d345c5","6175e05636b79082f8d345c5_20240212","","","7","163"
"2397","0","html-button-response","122","514029","0.0-122.0","6175e05636b79082f8d345c5","6175e05636b79082f8d345c5_20240212","","","4","182"
"2547","0","html-button-response","123","517091","0.0-123.0","6175e05636b79082f8d345c5","6175e05636b79082f8d345c5_20240212","","","2","45"
"3539","0","html-button-response","124","521135","0.0-124.0","6175e05636b79082f8d345c5","6175e05636b79082f8d345c5_20240212","","","4","183"
"2217","0","html-button-response","125","523861","0.0-125.0","6175e05636b79082f8d345c5","6175e05636b79082f8d345c5_20240212","","","6","176"
"2396","0","html-button-response","126","526767","0.0-126.0","6175e05636b79082f8d345c5","6175e05636b79082f8d345c5_20240212","","","6","162"
"2245","0","html-button-response","127","529525","0.0-127.0","6175e05636b79082f8d345c5","6175e05636b79082f8d345c5_20240212","","","7","171"
"2458","0","html-button-response","128","532496","0.0-128.0","6175e05636b79082f8d345c5","6175e05636b79082f8d345c5_20240212","","","8","96"
"1591","0","html-button-response","129","534592","0.0-129.0","6175e05636b79082f8d345c5","6175e05636b79082f8d345c5_20240212","","","",""
"8339","0","html-button-response","130","543441","0.0-130.0","6175e05636b79082f8d345c5","6175e05636b79082f8d345c5_20240212","","","5","16"
"3567","0","html-button-response","131","547517","0.0-131.0","6175e05636b79082f8d345c5","6175e05636b79082f8d345c5_20240212","","","9","119"
"3998","0","html-button-response","132","552028","0.0-132.0","6175e05636b79082f8d345c5","6175e05636b79082f8d345c5_20240212","","","6","4"
"2952","0","html-button-response","133","555496","0.0-133.0","6175e05636b79082f8d345c5","6175e05636b79082f8d345c5_20240212","","","1","9"
"2768","0","html-button-response","134","558768","0.0-134.0","6175e05636b79082f8d345c5","6175e05636b79082f8d345c5_20240212","","","9","127"
"3509","0","html-button-response","135","562780","0.0-135.0","6175e05636b79082f8d345c5","6175e05636b79082f8d345c5_20240212","","","7","56"
"2264","0","html-button-response","136","565554","0.0-136.0","6175e05636b79082f8d345c5","6175e05636b79082f8d345c5_20240212","","","7","70"
"1981","0","html-button-response","137","568048","0.0-137.0","6175e05636b79082f8d345c5","6175e05636b79082f8d345c5_20240212","","","9","112"
"1984","0","html-button-response","138","570549","0.0-138.0","6175e05636b79082f8d345c5","6175e05636b79082f8d345c5_20240212","","","9","61"
"2105","0","html-button-response","139","573166","0.0-139.0","6175e05636b79082f8d345c5","6175e05636b79082f8d345c5_20240212","","","9","113"
"1784","0","html-button-response","140","575463","0.0-140.0","6175e05636b79082f8d345c5","6175e05636b79082f8d345c5_20240212","","","9","128"
"3760","0","html-button-response","141","579726","0.0-141.0","6175e05636b79082f8d345c5","6175e05636b79082f8d345c5_20240212","","","2","60"
"3128","0","html-button-response","142","583364","0.0-142.0","6175e05636b79082f8d345c5","6175e05636b79082f8d345c5_20240212","","","2","14"
"2299","0","html-button-response","143","586168","0.0-143.0","6175e05636b79082f8d345c5","6175e05636b79082f8d345c5_20240212","","","9","131"
"2603","0","html-button-response","144","589278","0.0-144.0","6175e05636b79082f8d345c5","6175e05636b79082f8d345c5_20240212","","","9","109"
"2842","0","html-button-response","145","592626","0.0-145.0","6175e05636b79082f8d345c5","6175e05636b79082f8d345c5_20240212","","","8","124"
"3596","0","html-button-response","146","596724","0.0-146.0","6175e05636b79082f8d345c5","6175e05636b79082f8d345c5_20240212","","","6","62"
"1970","0","html-button-response","147","599202","0.0-147.0","6175e05636b79082f8d345c5","6175e05636b79082f8d345c5_20240212","","","7","58"
"2723","0","html-button-response","148","602436","0.0-148.0","6175e05636b79082f8d345c5","6175e05636b79082f8d345c5_20240212","","","8","110"
"2110","0","html-button-response","149","605054","0.0-149.0","6175e05636b79082f8d345c5","6175e05636b79082f8d345c5_20240212","","","8","65"
"4066","0","html-button-response","150","609627","0.0-150.0","6175e05636b79082f8d345c5","6175e05636b79082f8d345c5_20240212","","","4","18"
"2578","0","html-button-response","151","612712","0.0-151.0","6175e05636b79082f8d345c5","6175e05636b79082f8d345c5_20240212","","","8","111"
"3638","0","html-button-response","152","616864","0.0-152.0","6175e05636b79082f8d345c5","6175e05636b79082f8d345c5_20240212","","","4","5"
"2020","0","html-button-response","153","619396","0.0-153.0","6175e05636b79082f8d345c5","6175e05636b79082f8d345c5_20240212","","","6","114"
"2544","0","html-button-response","154","622458","0.0-154.0","6175e05636b79082f8d345c5","6175e05636b79082f8d345c5_20240212","","","2","10"
"2310","0","html-button-response","155","625286","0.0-155.0","6175e05636b79082f8d345c5","6175e05636b79082f8d345c5_20240212","","","7","125"
"2457","0","html-button-response","156","628254","0.0-156.0","6175e05636b79082f8d345c5","6175e05636b79082f8d345c5_20240212","","","9","67"
"2430","0","html-button-response","157","631198","0.0-157.0","6175e05636b79082f8d345c5","6175e05636b79082f8d345c5_20240212","","","9","59"
"2091","0","html-button-response","158","633792","0.0-158.0","6175e05636b79082f8d345c5","6175e05636b79082f8d345c5_20240212","","","9","115"
"2773","0","html-button-response","159","637071","0.0-159.0","6175e05636b79082f8d345c5","6175e05636b79082f8d345c5_20240212","","","7","66"
"2023","0","html-button-response","160","639612","0.0-160.0","6175e05636b79082f8d345c5","6175e05636b79082f8d345c5_20240212","","","6","57"
"2356","0","html-button-response","161","642472","0.0-161.0","6175e05636b79082f8d345c5","6175e05636b79082f8d345c5_20240212","","","4","64"
"2238","0","html-button-response","162","645214","0.0-162.0","6175e05636b79082f8d345c5","6175e05636b79082f8d345c5_20240212","","","3","2"
"2071","0","html-button-response","163","647800","0.0-163.0","6175e05636b79082f8d345c5","6175e05636b79082f8d345c5_20240212","","","2","3"
"2398","0","html-button-response","164","650706","0.0-164.0","6175e05636b79082f8d345c5","6175e05636b79082f8d345c5_20240212","","","2","13"
"3224","0","html-button-response","165","654438","0.0-165.0","6175e05636b79082f8d345c5","6175e05636b79082f8d345c5_20240212","","","9","72"
"3280","0","html-button-response","166","658224","0.0-166.0","6175e05636b79082f8d345c5","6175e05636b79082f8d345c5_20240212","","","5","7"
"2832","0","html-button-response","167","661574","0.0-167.0","6175e05636b79082f8d345c5","6175e05636b79082f8d345c5_20240212","","","3","68"
"2337","0","html-button-response","168","664418","0.0-168.0","6175e05636b79082f8d345c5","6175e05636b79082f8d345c5_20240212","","","2","6"
"2622","0","html-button-response","169","667550","0.0-169.0","6175e05636b79082f8d345c5","6175e05636b79082f8d345c5_20240212","","","3","1"
"2133","0","html-button-response","170","670198","0.0-170.0","6175e05636b79082f8d345c5","6175e05636b79082f8d345c5_20240212","","","2","63"
"2447","0","html-button-response","171","673150","0.0-171.0","6175e05636b79082f8d345c5","6175e05636b79082f8d345c5_20240212","","","7","69"
"2296","0","html-button-response","172","675962","0.0-172.0","6175e05636b79082f8d345c5","6175e05636b79082f8d345c5_20240212","","","8","55"
"3411","0","html-button-response","173","679888","0.0-173.0","6175e05636b79082f8d345c5","6175e05636b79082f8d345c5_20240212","","","2","11"
"2347","0","html-button-response","174","682740","0.0-174.0","6175e05636b79082f8d345c5","6175e05636b79082f8d345c5_20240212","","","6","116"
"1928","0","html-button-response","175","685178","0.0-175.0","6175e05636b79082f8d345c5","6175e05636b79082f8d345c5_20240212","","","7","129"
"1872","0","html-button-response","176","687555","0.0-176.0","6175e05636b79082f8d345c5","6175e05636b79082f8d345c5_20240212","","","3","8"
"2347","0","html-button-response","177","690406","0.0-177.0","6175e05636b79082f8d345c5","6175e05636b79082f8d345c5_20240212","","","1","12"
"2538","0","html-button-response","178","693452","0.0-178.0","6175e05636b79082f8d345c5","6175e05636b79082f8d345c5_20240212","","","5","15"
"2482","0","html-button-response","179","696442","0.0-179.0","6175e05636b79082f8d345c5","6175e05636b79082f8d345c5_20240212","","","8","118"
"2347","0","html-button-response","180","699294","0.0-180.0","6175e05636b79082f8d345c5","6175e05636b79082f8d345c5_20240212","","","9","121"
"2046","0","html-button-response","181","701842","0.0-181.0","6175e05636b79082f8d345c5","6175e05636b79082f8d345c5_20240212","","","9","130"
"2452","0","html-button-response","182","704802","0.0-182.0","6175e05636b79082f8d345c5","6175e05636b79082f8d345c5_20240212","","","2","17"
"2641","0","html-button-response","183","707949","0.0-183.0","6175e05636b79082f8d345c5","6175e05636b79082f8d345c5_20240212","","","5","117"
"2439","0","html-button-response","184","710902","0.0-184.0","6175e05636b79082f8d345c5","6175e05636b79082f8d345c5_20240212","","","8","122"
"2528","0","html-button-response","185","713947","0.0-185.0","6175e05636b79082f8d345c5","6175e05636b79082f8d345c5_20240212","","","7","126"
"2618","0","html-button-response","186","717072","0.0-186.0","6175e05636b79082f8d345c5","6175e05636b79082f8d345c5_20240212","","","7","123"
"2636","0","html-button-response","187","720212","0.0-187.0","6175e05636b79082f8d345c5","6175e05636b79082f8d345c5_20240212","","","8","120"
"2569","0","html-button-response","188","723288","0.0-188.0","6175e05636b79082f8d345c5","6175e05636b79082f8d345c5_20240212","","","8","71"
"1368","0","html-button-response","189","725157","0.0-189.0","6175e05636b79082f8d345c5","6175e05636b79082f8d345c5_20240212","","Thank you. You have reached the end. 
                       <br>Click the button below to reveal your compensation.
                        <br><br>","",""
